"","Movie","X","trials.thisRepN","trials.thisTrialN","trials.thisN","trials.thisIndex","trials_2.thisRepN","trials_2.thisTrialN","trials_2.thisN","trials_2.thisIndex","trials_3.thisRepN","trials_3.thisTrialN","trials_3.thisN","trials_3.thisIndex","key_resp_4.keys","key_resp_4.rt","key_resp_6.keys","key_resp_6.rt","key_resp_9.keys","key_resp_9.rt","key_resp_10.keys","key_resp_10.rt","key_resp_11.keys","key_resp_11.rt","key_resp_12.keys","key_resp_12.rt","date","expName","session","participant","X.1","testTime","testType","fan","konfidenz","team","correct","PC","Strafraum","Ballbesitz","Boundary","interval","FanEB"
"1","E_D_01.avi",955,0,0,0,0,NA,NA,NA,NA,NA,NA,NA,NA,1,39.9879884175,2,6.59780027909,NA,NA,NA,NA,NA,NA,NA,NA,"2013_Mai_25_2305","PostTest",1,26,NA,1,"Ecken","FCB",2,"BVB","Kopf",0,1,"BVB --> FCB",1,35,"FCB"
"2","E_D_01.avi",3150,0,0,0,0,NA,NA,NA,NA,NA,NA,NA,NA,2,10.3417579609,5,11.1952060946,NA,NA,NA,NA,NA,NA,NA,NA,"2013_Jun_05_1807","PostTest",1,53,NA,2,"Ecken","FCB",5,"BVB","Kopf",1,1,"BVB --> FCB",1,35,"FCB"
"3","E_D_01.avi",3920,0,0,0,0,NA,NA,NA,NA,NA,NA,NA,NA,2,3.66469649076,3,3.16299306197,NA,NA,NA,NA,NA,NA,NA,NA,"2013_Jun_03_1355","PostTest",1,57,NA,2,"Ecken","FCB",3,"BVB","Kopf",1,1,"BVB --> FCB",1,35,"FCB"
"4","E_D_01.avi",1379,0,0,0,0,NA,NA,NA,NA,NA,NA,NA,NA,1,4.65255528286,1,1.00391418462,NA,NA,NA,NA,NA,NA,NA,NA,"2013_Jun_03_1134","PostTest",1,20,NA,2,"Ecken","FCB",1,"BVB","Kopf",0,1,"BVB --> FCB",1,35,"FCB"
"5","E_D_01.avi",3381,0,0,0,0,NA,NA,NA,NA,NA,NA,NA,NA,2,7.31269365241,1,4.09996801269,NA,NA,NA,NA,NA,NA,NA,NA,"2013_Jun_03_0917","PostTest",1,49,NA,2,"Ecken","FCB",1,"BVB","Kopf",1,1,"BVB --> FCB",1,35,"FCB"
"6","E_D_01.avi",232,0,0,0,0,NA,NA,NA,NA,NA,NA,NA,NA,1,3.9493829523,1,2.66038784259,NA,NA,NA,NA,NA,NA,NA,NA,"2013_Jun_04_1612","PostTest",1,4,NA,2,"Ecken","FCB",1,"BVB","Kopf",0,1,"BVB --> FCB",1,35,"FCB"
"7","E_D_01.avi",2333,0,0,0,0,NA,NA,NA,NA,NA,NA,NA,NA,1,22.0637905097,1,4.40927967102,NA,NA,NA,NA,NA,NA,NA,NA,"2013_Mai_25_2304","PostTest",1,52,NA,1,"Ecken","BVB",1,"BVB","Kopf",0,1,"BVB --> FCB",1,35,"FCB"
"8","E_D_01.avi",1167,0,0,0,0,NA,NA,NA,NA,NA,NA,NA,NA,2,3.14540423434,4,5.08709682376,NA,NA,NA,NA,NA,NA,NA,NA,"2013_Mai_25_2308","PostTest",1,30,NA,1,"Ecken","BVB",4,"BVB","Kopf",1,1,"BVB --> FCB",1,35,"FCB"
"9","E_D_01.avi",1114,0,0,0,0,NA,NA,NA,NA,NA,NA,NA,NA,2,5.18787778894,3,2.8446165644,NA,NA,NA,NA,NA,NA,NA,NA,"2013_Mai_25_2321","PostTest",1,3,NA,1,"Ecken","BVB",3,"BVB","Kopf",1,1,"BVB --> FCB",1,35,"FCB"
"10","E_D_01.avi",155,0,0,0,0,NA,NA,NA,NA,NA,NA,NA,NA,2,2.89508163747,3,1.15450678787,NA,NA,NA,NA,NA,NA,NA,NA,"2013_Jun_04_2052","PostTest",1,3,NA,2,"Ecken","BVB",3,"BVB","Kopf",1,1,"BVB --> FCB",1,35,"FCB"
"11","E_D_01.avi",1,0,0,0,0,NA,NA,NA,NA,NA,NA,NA,NA,2,9.00349457822,1,2.84419137069,NA,NA,NA,NA,NA,NA,NA,NA,"2013_Mai_25_2309","PostTest",1,1,NA,1,"Ecken","BVB",1,"BVB","Kopf",1,1,"BVB --> FCB",1,35,"FCB"
"12","E_D_01.avi",540,0,0,0,0,NA,NA,NA,NA,NA,NA,NA,NA,2,6.66012579811,4,5.28814779532,NA,NA,NA,NA,NA,NA,NA,NA,"2013_Jun_06_1539","PostTest",1,8,NA,2,"Ecken","FCB",4,"BVB","Kopf",1,1,"BVB --> FCB",1,35,"FCB"
"13","E_D_01.avi",3843,0,0,0,0,NA,NA,NA,NA,NA,NA,NA,NA,2,2.84472439933,5,4.80259753684,NA,NA,NA,NA,NA,NA,NA,NA,"2013_Jun_03_0805","PostTest",1,56,NA,2,"Ecken","FCB",5,"BVB","Kopf",1,1,"BVB --> FCB",1,35,"FCB"
"14","E_D_01.avi",4151,0,0,0,0,NA,NA,NA,NA,NA,NA,NA,NA,1,5.43926700181,2,6.04039815116,NA,NA,NA,NA,NA,NA,NA,NA,"2013_Jun_03_0930","PostTest",1,60,NA,2,"Ecken","BVB",2,"BVB","Kopf",0,1,"BVB --> FCB",1,35,"FCB"
"15","E_D_01.avi",1379,0,0,0,0,NA,NA,NA,NA,NA,NA,NA,NA,1,52.2445606914,1,51.1396099225,NA,NA,NA,NA,NA,NA,NA,NA,"2013_Mai_25_2308","PostTest",1,34,NA,1,"Ecken","BVB",1,"BVB","Kopf",0,1,"BVB --> FCB",1,35,"FCB"
"16","E_D_01.avi",690,0,0,0,0,NA,NA,NA,NA,NA,NA,NA,NA,1,10.8405749893,4,12.5441934659,NA,NA,NA,NA,NA,NA,NA,NA,"2013_Mai_25_2304","PostTest",1,21,NA,1,"Ecken","FCB",4,"BVB","Kopf",0,1,"BVB --> FCB",1,35,"FCB"
"17","E_D_01.avi",2919,0,0,0,0,NA,NA,NA,NA,NA,NA,NA,NA,2,2.4433256182,3,3.24627878683,NA,NA,NA,NA,NA,NA,NA,NA,"2013_Jun_04_1603","PostTest",1,41,NA,2,"Ecken","FCB",3,"BVB","Kopf",1,1,"BVB --> FCB",1,35,"FCB"
"18","E_D_01.avi",3227,0,0,0,0,NA,NA,NA,NA,NA,NA,NA,NA,2,1.84086999884,3,1.4559207944,NA,NA,NA,NA,NA,NA,NA,NA,"2013_Jun_05_1401","PostTest",1,47,NA,2,"Ecken","FCB",3,"BVB","Kopf",1,1,"BVB --> FCB",1,35,"FCB"
"19","E_D_01.avi",1273,0,0,0,0,NA,NA,NA,NA,NA,NA,NA,NA,2,16.2155516972,2,5.80674974054,NA,NA,NA,NA,NA,NA,NA,NA,"2013_Mai_25_2308","PostTest",1,32,NA,1,"Ecken","BVB",2,"BVB","Kopf",1,1,"BVB --> FCB",1,35,"FCB"
"20","E_D_01.avi",2386,0,0,0,0,NA,NA,NA,NA,NA,NA,NA,NA,2,9.20453241962,3,7.61170204593,NA,NA,NA,NA,NA,NA,NA,NA,"2013_Mai_25_2304","PostTest",1,53,NA,1,"Ecken","FCB",3,"BVB","Kopf",1,1,"BVB --> FCB",1,35,"FCB"
"21","E_D_01.avi",2996,0,0,0,0,NA,NA,NA,NA,NA,NA,NA,NA,1,1.74018792891,3,2.24244617682,NA,NA,NA,NA,NA,NA,NA,NA,"2013_Jun_04_0925","PostTest",1,43,NA,2,"Ecken","FCB",3,"BVB","Kopf",0,1,"BVB --> FCB",1,35,"FCB"
"22","E_D_01.avi",4228,0,0,0,0,NA,NA,NA,NA,NA,NA,NA,NA,2,4.01610428141,3,4.91975348822,NA,NA,NA,NA,NA,NA,NA,NA,"2013_Jun_04_1926","PostTest",1,61,NA,2,"Ecken","FCB",3,"BVB","Kopf",1,1,"BVB --> FCB",1,35,"FCB"
"23","E_D_01.avi",3997,0,0,0,0,NA,NA,NA,NA,NA,NA,NA,NA,1,2.81143469352,3,1.85735868665,NA,NA,NA,NA,NA,NA,NA,NA,"2013_Jun_04_0905","PostTest",1,58,NA,2,"Ecken","BVB",3,"BVB","Kopf",0,1,"BVB --> FCB",1,35,"FCB"
"24","E_D_01.avi",849,0,0,0,0,NA,NA,NA,NA,NA,NA,NA,NA,1,11.440452348,1,2.98981658283,NA,NA,NA,NA,NA,NA,NA,NA,"2013_Mai_25_2307","PostTest",1,24,NA,1,"Ecken","BVB",1,"BVB","Kopf",0,1,"BVB --> FCB",1,35,"FCB"
"25","E_D_01.avi",2598,0,0,0,0,NA,NA,NA,NA,NA,NA,NA,NA,1,4.69529598036,5,2.81035760132,NA,NA,NA,NA,NA,NA,NA,NA,"2013_Mai_25_2305","PostTest",1,57,NA,1,"Ecken","FCB",5,"BVB","Kopf",0,1,"BVB --> FCB",1,35,"FCB"
"26","E_D_01.avi",372,0,0,0,0,NA,NA,NA,NA,NA,NA,NA,NA,2,4.28198388343,3,2.56556154483,NA,NA,NA,NA,NA,NA,NA,NA,"2013_Mai_25_2305","PostTest",1,16,NA,1,"Ecken","FCB",3,"BVB","Kopf",1,1,"BVB --> FCB",1,35,"FCB"
"27","E_D_01.avi",743,0,0,0,0,NA,NA,NA,NA,NA,NA,NA,NA,2,3.77505912064,5,4.87742995269,NA,NA,NA,NA,NA,NA,NA,NA,"2013_Mai_25_2304","PostTest",1,22,NA,1,"Ecken","FCB",5,"BVB","Kopf",1,1,"BVB --> FCB",1,35,"FCB"
"28","E_D_01.avi",3304,0,0,0,0,NA,NA,NA,NA,NA,NA,NA,NA,2,2.79468787234,3,1.87423680943,NA,NA,NA,NA,NA,NA,NA,NA,"2013_Jun_04_1603","PostTest",1,48,NA,2,"Ecken","FCB",3,"BVB","Kopf",1,1,"BVB --> FCB",1,35,"FCB"
"29","E_D_01.avi",2688,0,0,0,0,NA,NA,NA,NA,NA,NA,NA,NA,2,1.62310489182,4,4.78594262679,NA,NA,NA,NA,NA,NA,NA,NA,"2013_Jun_03_1017","PostTest",1,38,NA,2,"Ecken","BVB",4,"BVB","Kopf",1,1,"BVB --> FCB",1,35,"FCB"
"30","E_D_01.avi",2439,0,0,0,0,NA,NA,NA,NA,NA,NA,NA,NA,2,3.54180601166,4,4.20993673777,NA,NA,NA,NA,NA,NA,NA,NA,"2013_Mai_25_2303","PostTest",1,54,NA,1,"Ecken","BVB",4,"BVB","Kopf",1,1,"BVB --> FCB",1,35,"FCB"
"31","E_D_01.avi",637,0,0,0,0,NA,NA,NA,NA,NA,NA,NA,NA,1,11.9717199811,1,2.68440387478,NA,NA,NA,NA,NA,NA,NA,NA,"2013_Mai_25_2304","PostTest",1,20,NA,1,"Ecken","FCB",1,"BVB","Kopf",0,1,"BVB --> FCB",1,35,"FCB"
"32","E_D_01.avi",213,0,0,0,0,NA,NA,NA,NA,NA,NA,NA,NA,2,7.52041251053,3,2.96900723416,NA,NA,NA,NA,NA,NA,NA,NA,"2013_Mai_25_2306","PostTest",1,13,NA,1,"Ecken","FCB",3,"BVB","Kopf",1,1,"BVB --> FCB",1,35,"FCB"
"33","E_D_01.avi",2611,0,0,0,0,NA,NA,NA,NA,NA,NA,NA,NA,1,6.89439663421,1,1.52287902513,NA,NA,NA,NA,NA,NA,NA,NA,"2013_Jun_03_1100","PostTest",1,36,NA,2,"Ecken","BVB",1,"BVB","Kopf",0,1,"BVB --> FCB",1,35,"FCB"
"34","E_D_01.avi",584,0,0,0,0,NA,NA,NA,NA,NA,NA,NA,NA,2,7.54541149783,4,2.94449741517,NA,NA,NA,NA,NA,NA,NA,NA,"2013_Mai_25_2308","PostTest",1,2,NA,1,"Ecken","FCB",4,"BVB","Kopf",1,1,"BVB --> FCB",1,35,"FCB"
"35","E_D_01.avi",2280,0,0,0,0,NA,NA,NA,NA,NA,NA,NA,NA,2,9.79133297668,2,7.74556179626,NA,NA,NA,NA,NA,NA,NA,NA,"2013_Mai_25_2304","PostTest",1,51,NA,1,"Ecken","FCB",2,"BVB","Kopf",1,1,"BVB --> FCB",1,35,"FCB"
"36","E_D_01.avi",107,0,0,0,0,NA,NA,NA,NA,NA,NA,NA,NA,2,4.32607133029,2,3.47412841576,NA,NA,NA,NA,NA,NA,NA,NA,"2013_Mai_25_2305","PostTest",1,11,NA,1,"Ecken","FCB",2,"BVB","Kopf",1,1,"BVB --> FCB",1,35,"FCB"
"37","E_D_01.avi",1533,0,0,0,0,NA,NA,NA,NA,NA,NA,NA,NA,2,5.73990744634,3,4.31713220535,NA,NA,NA,NA,NA,NA,NA,NA,"2013_Jun_04_1322","PostTest",1,22,NA,2,"Ecken","FCB",3,"BVB","Kopf",1,1,"BVB --> FCB",1,35,"FCB"
"38","E_D_01.avi",1918,0,0,0,0,NA,NA,NA,NA,NA,NA,NA,NA,1,6.74397081193,5,5.02022044701,NA,NA,NA,NA,NA,NA,NA,NA,"2013_Jun_05_1419","PostTest",1,15,NA,2,"Ecken","FCB",5,"BVB","Kopf",0,1,"BVB --> FCB",1,35,"FCB"
"39","E_D_01.avi",2534,0,0,0,0,NA,NA,NA,NA,NA,NA,NA,NA,2,4.18374542016,4,2.4931682658,NA,NA,NA,NA,NA,NA,NA,NA,"2013_Jun_03_1558","PostTest",1,35,NA,2,"Ecken","FCB",4,"BVB","Kopf",1,1,"BVB --> FCB",1,35,"FCB"
"40","E_D_01.avi",796,0,0,0,0,NA,NA,NA,NA,NA,NA,NA,NA,2,6.16979141204,3,5.01294158894,NA,NA,NA,NA,NA,NA,NA,NA,"2013_Mai_25_2303","PostTest",1,23,NA,1,"Ecken","BVB",3,"BVB","Kopf",1,1,"BVB --> FCB",1,35,"FCB"
"41","E_D_01.avi",2492,0,0,0,0,NA,NA,NA,NA,NA,NA,NA,NA,2,5.23840264615,3,4.53197675962,NA,NA,NA,NA,NA,NA,NA,NA,"2013_Mai_25_2303","PostTest",1,55,NA,1,"Ecken","FCB",3,"BVB","Kopf",1,1,"BVB --> FCB",1,35,"FCB"
"42","E_D_01.avi",78,0,0,0,0,NA,NA,NA,NA,NA,NA,NA,NA,2,8.31707270058,2,2.09141413224,NA,NA,NA,NA,NA,NA,NA,NA,"2013_Jun_03_1707","PostTest",1,2,NA,2,"Ecken","FCB",2,"BVB","Kopf",1,1,"BVB --> FCB",1,35,"FCB"
"43","E_D_01.avi",2863,0,0,0,0,NA,NA,NA,NA,NA,NA,NA,NA,1,5.44550326927,3,3.3068733596,NA,NA,NA,NA,NA,NA,NA,NA,"2013_Mai_25_2307","PostTest",1,61,NA,1,"Ecken","FCB",3,"BVB","Kopf",0,1,"BVB --> FCB",1,35,"FCB"
"44","E_D_01.avi",3073,0,0,0,0,NA,NA,NA,NA,NA,NA,NA,NA,2,3.21288264291,3,2.30942535993,NA,NA,NA,NA,NA,NA,NA,NA,"2013_Jun_03_0902","PostTest",1,44,NA,2,"Ecken","BVB",3,"BVB","Kopf",1,1,"BVB --> FCB",1,35,"FCB"
"45","E_D_01.avi",2457,0,0,0,0,NA,NA,NA,NA,NA,NA,NA,NA,1,5.40525429908,1,3.07897819416,NA,NA,NA,NA,NA,NA,NA,NA,"2013_Jun_04_1339","PostTest",1,34,NA,2,"Ecken","BVB",1,"BVB","Kopf",0,1,"BVB --> FCB",1,35,"FCB"
"46","E_D_01.avi",1764,0,0,0,0,NA,NA,NA,NA,NA,NA,NA,NA,1,5.20450671803,1,3.31314343024,NA,NA,NA,NA,NA,NA,NA,NA,"2013_Jun_03_1121","PostTest",1,25,NA,2,"Ecken","BVB",1,"BVB","Kopf",0,1,"BVB --> FCB",1,35,"FCB"
"47","E_D_01.avi",1148,0,0,0,0,NA,NA,NA,NA,NA,NA,NA,NA,1,9.01962511995,3,4.68566284262,NA,NA,NA,NA,NA,NA,NA,NA,"2013_Jun_04_1337","PostTest",1,17,NA,2,"Ecken","FCB",3,"BVB","Kopf",0,1,"BVB --> FCB",1,35,"FCB"
"48","E_D_01.avi",1220,0,0,0,0,NA,NA,NA,NA,NA,NA,NA,NA,1,13.0862067665,3,3.29655612655,NA,NA,NA,NA,NA,NA,NA,NA,"2013_May_25_2308","PostTest",1,31,NA,1,"Ecken","FCB",3,"BVB","Kopf",0,1,"BVB --> FCB",1,35,"FCB"
"49","E_D_01.avi",160,0,0,0,0,NA,NA,NA,NA,NA,NA,NA,NA,2,8.30143356209,2,3.82473833965,NA,NA,NA,NA,NA,NA,NA,NA,"2013_Mai_25_2305","PostTest",1,12,NA,1,"Ecken","FCB",2,"BVB","Kopf",1,1,"BVB --> FCB",1,35,"FCB"
"50","E_D_01.avi",54,0,0,0,0,NA,NA,NA,NA,NA,NA,NA,NA,2,3.27392419986,3,2.43851774457,NA,NA,NA,NA,NA,NA,NA,NA,"2013_Mai_25_2304","PostTest",1,10,NA,1,"Ecken","FCB",3,"BVB","Kopf",1,1,"BVB --> FCB",1,35,"FCB"
"51","E_D_01.avi",1962,0,0,0,0,NA,NA,NA,NA,NA,NA,NA,NA,1,3.44087949725,1,2.30501781651,NA,NA,NA,NA,NA,NA,NA,NA,"2013_Mai_25_2307","PostTest",1,45,NA,1,"Ecken","FCB",1,"BVB","Kopf",0,1,"BVB --> FCB",1,35,"FCB"
"52","E_D_01.avi",1071,0,0,0,0,NA,NA,NA,NA,NA,NA,NA,NA,2,3.27996379428,1,1.68990025269,NA,NA,NA,NA,NA,NA,NA,NA,"2013_Jun_03_1557","PostTest",1,16,NA,2,"Ecken","FCB",1,"BVB","Kopf",1,1,"BVB --> FCB",1,35,"FCB"
"53","E_D_01.avi",1456,0,0,0,0,NA,NA,NA,NA,NA,NA,NA,NA,1,12.3998139428,1,8.66800221816,NA,NA,NA,NA,NA,NA,NA,NA,"2013_Jun_04_1337","PostTest",1,21,NA,2,"Ecken","FCB",1,"BVB","Kopf",0,1,"BVB --> FCB",1,35,"FCB"
"54","E_D_01.avi",2303,0,0,0,0,NA,NA,NA,NA,NA,NA,NA,NA,2,3.12915580053,4,2.84472411996,NA,NA,NA,NA,NA,NA,NA,NA,"2013_Jun_04_1959","PostTest",1,32,NA,2,"Ecken","BVB",4,"BVB","Kopf",1,1,"BVB --> FCB",1,35,"FCB"
"55","E_D_01.avi",1432,0,0,0,0,NA,NA,NA,NA,NA,NA,NA,NA,1,2.34272624035,5,2.44340719281,NA,NA,NA,NA,NA,NA,NA,NA,"2013_May_25_2308","PostTest",1,35,NA,1,"Ecken","FCB",5,"BVB","Kopf",0,1,"BVB --> FCB",1,35,"FCB"
"56","E_D_01.avi",319,0,0,0,0,NA,NA,NA,NA,NA,NA,NA,NA,1,15.3042495624,2,9.26352902394,NA,NA,NA,NA,NA,NA,NA,NA,"2013_Mai_25_2309","PostTest",1,15,NA,1,"Ecken","FCB",2,"BVB","Kopf",0,1,"BVB --> FCB",1,35,"FCB"
"57","E_D_01.avi",463,0,0,0,0,NA,NA,NA,NA,NA,NA,NA,NA,1,2.04166535132,4,4.5514714859,NA,NA,NA,NA,NA,NA,NA,NA,"2013_Jun_05_1650","PostTest",1,7,NA,2,"Ecken","BVB",4,"BVB","Kopf",0,1,"BVB --> FCB",1,35,"FCB"
"58","E_D_01.avi",3535,0,0,0,0,NA,NA,NA,NA,NA,NA,NA,NA,2,17.4035493338,2,4.11675087197,NA,NA,NA,NA,NA,NA,NA,NA,"2013_Jun_05_1605","PostTest",1,51,NA,2,"Ecken","FCB",2,"BVB","Kopf",1,1,"BVB --> FCB",1,35,"FCB"
"59","E_D_01.avi",4074,0,0,0,0,NA,NA,NA,NA,NA,NA,NA,NA,1,24.1976737267,4,3.09589989789,NA,NA,NA,NA,NA,NA,NA,NA,"2013_Jun_03_0904","PostTest",1,59,NA,2,"Ecken","FCB",4,"BVB","Kopf",0,1,"BVB --> FCB",1,35,"FCB"
"60","E_D_01.avi",3458,0,0,0,0,NA,NA,NA,NA,NA,NA,NA,NA,1,4.80262463525,2,3.19631880588,NA,NA,NA,NA,NA,NA,NA,NA,"2013_Jun_04_1159","PostTest",1,50,NA,2,"Ecken","FCB",2,"BVB","Kopf",0,1,"BVB --> FCB",1,35,"FCB"
"61","E_D_01.avi",2842,0,0,0,0,NA,NA,NA,NA,NA,NA,NA,NA,1,2.86144607764,2,4.30058652706,NA,NA,NA,NA,NA,NA,NA,NA,"2013_Jun_03_1239","PostTest",1,40,NA,2,"Ecken","BVB",2,"BVB","Kopf",0,1,"BVB --> FCB",1,35,"FCB"
"62","E_D_01.avi",2068,0,0,0,0,NA,NA,NA,NA,NA,NA,NA,NA,2,2.55112180548,5,2.55092506898,NA,NA,NA,NA,NA,NA,NA,NA,"2013_Mai_25_2318","PostTest",1,48,NA,1,"Ecken","FCB",5,"BVB","Kopf",1,1,"BVB --> FCB",1,35,"FCB"
"63","E_D_01.avi",2149,0,0,0,0,NA,NA,NA,NA,NA,NA,NA,NA,2,1.32217111393,4,1.99117485602,NA,NA,NA,NA,NA,NA,NA,NA,"2013_Jun_05_1759","PostTest",1,30,NA,2,"Ecken","BVB",4,"BVB","Kopf",1,1,"BVB --> FCB",1,35,"FCB"
"64","E_D_01.avi",531,0,0,0,0,NA,NA,NA,NA,NA,NA,NA,NA,2,45.2842126583,1,2.94886556811,NA,NA,NA,NA,NA,NA,NA,NA,"2013_Mai_25_2304","PostTest",1,19,NA,1,"Ecken","FCB",1,"BVB","Kopf",1,1,"BVB --> FCB",1,35,"FCB"
"65","E_D_01.avi",2765,0,0,0,0,NA,NA,NA,NA,NA,NA,NA,NA,2,2.97876741318,3,1.57288146957,NA,NA,NA,NA,NA,NA,NA,NA,"2013_Jun_03_0954","PostTest",1,39,NA,2,"Ecken","FCB",3,"BVB","Kopf",1,1,"BVB --> FCB",1,35,"FCB"
"66","E_D_01.avi",1302,0,0,0,0,NA,NA,NA,NA,NA,NA,NA,NA,1,3.91582673217,1,1.42213577424,NA,NA,NA,NA,NA,NA,NA,NA,"2013_Jun_03_1134","PostTest",1,19,NA,2,"Ecken","FCB",1,"BVB","Kopf",0,1,"BVB --> FCB",1,35,"FCB"
"67","E_D_01.avi",1856,0,0,0,0,NA,NA,NA,NA,NA,NA,NA,NA,2,4.92932956563,3,3.23567967437,NA,NA,NA,NA,NA,NA,NA,NA,"2013_Mai_25_2305","PostTest",1,43,NA,1,"Ecken","FCB",3,"BVB","Kopf",1,1,"BVB --> FCB",1,35,"FCB"
"68","E_D_01.avi",2227,0,0,0,0,NA,NA,NA,NA,NA,NA,NA,NA,2,13.195455847,1,3.44073227184,NA,NA,NA,NA,NA,NA,NA,NA,"2013_Mai_25_2305","PostTest",1,50,NA,1,"Ecken","FCB",1,"BVB","Kopf",1,1,"BVB --> FCB",1,35,"FCB"
"69","E_D_01.avi",1841,0,0,0,0,NA,NA,NA,NA,NA,NA,NA,NA,2,11.0446587485,2,3.53065068326,NA,NA,NA,NA,NA,NA,NA,NA,"2013_Jun_11_1106","PostTest",1,26,NA,2,"Ecken","FCB",2,"BVB","Kopf",1,1,"BVB --> FCB",1,35,"FCB"
"70","E_D_01.avi",2072,0,0,0,0,NA,NA,NA,NA,NA,NA,NA,NA,2,1.93551442991,2,3.90519828637,NA,NA,NA,NA,NA,NA,NA,NA,"2013_Jun_14_1400","PostTest",1,29,NA,2,"Ecken","BVB",2,"BVB","Kopf",1,1,"BVB --> FCB",1,35,"FCB"
"71","E_D_01.avi",763,0,0,0,0,NA,NA,NA,NA,NA,NA,NA,NA,2,16.9015545272,3,3.64794603783,NA,NA,NA,NA,NA,NA,NA,NA,"2013_Jun_03_1001","PostTest",1,11,NA,2,"Ecken","FCB",3,"BVB","Kopf",1,1,"BVB --> FCB",1,35,"FCB"
"72","E_D_01.avi",2810,0,0,0,0,NA,NA,NA,NA,NA,NA,NA,NA,2,6.99865457761,2,4.04210618947,NA,NA,NA,NA,NA,NA,NA,NA,"2013_Mai_25_2306","PostTest",1,60,NA,1,"Ecken","BVB",2,"BVB","Kopf",1,1,"BVB --> FCB",1,35,"FCB"
"73","E_D_01.avi",1326,0,0,0,0,NA,NA,NA,NA,NA,NA,NA,NA,1,4.60586415313,1,2.09857733315,NA,NA,NA,NA,NA,NA,NA,NA,"2013_Mai_25_2308","PostTest",1,33,NA,1,"Ecken","BVB",1,"BVB","Kopf",0,1,"BVB --> FCB",1,35,"FCB"
"74","E_D_01.avi",1995,0,0,0,0,NA,NA,NA,NA,NA,NA,NA,NA,1,3.24652015829,4,3.96596802108,NA,NA,NA,NA,NA,NA,NA,NA,"2013_Jun_05_1107","PostTest",1,28,NA,2,"Ecken","BVB",4,"BVB","Kopf",0,1,"BVB --> FCB",1,35,"FCB"
"75","E_D_01.avi",902,0,0,0,0,NA,NA,NA,NA,NA,NA,NA,NA,1,5.29477796759,3,2.53896235415,NA,NA,NA,NA,NA,NA,NA,NA,"2013_Mai_25_2307","PostTest",1,25,NA,1,"Ecken","BVB",3,"BVB","Kopf",0,1,"BVB --> FCB",1,35,"FCB"
"76","E_D_01.avi",2380,0,0,0,0,NA,NA,NA,NA,NA,NA,NA,NA,2,2.54347438012,4,1.43914212561,NA,NA,NA,NA,NA,NA,NA,NA,"2013_Jun_03_1707","PostTest",1,33,NA,2,"Ecken","BVB",4,"BVB","Kopf",1,1,"BVB --> FCB",1,35,"FCB"
"77","E_D_01.avi",478,0,0,0,0,NA,NA,NA,NA,NA,NA,NA,NA,2,6.56451699867,4,4.61517427494,NA,NA,NA,NA,NA,NA,NA,NA,"2013_Mai_25_2304","PostTest",1,18,NA,1,"Ecken","FCB",4,"BVB","Kopf",1,1,"BVB --> FCB",1,35,"FCB"
"78","E_D_01.avi",1,0,0,0,0,NA,NA,NA,NA,NA,NA,NA,NA,2,5.80690115643,1,1.40549567054,NA,NA,NA,NA,NA,NA,NA,NA,"2013_Jun_03_1501","PostTest",1,1,NA,2,"Ecken","BVB",1,"BVB","Kopf",1,1,"BVB --> FCB",1,35,"FCB"
"79","E_D_01.avi",1225,0,0,0,0,NA,NA,NA,NA,NA,NA,NA,NA,1,5.79002973842,1,1.82383319668,NA,NA,NA,NA,NA,NA,NA,NA,"2013_Jun_03_1559","PostTest",1,18,NA,2,"Ecken","FCB",1,"BVB","Kopf",0,1,"BVB --> FCB",1,35,"FCB"
"80","E_D_01.avi",3766,0,0,0,0,NA,NA,NA,NA,NA,NA,NA,NA,1,1.60651842622,3,1.25479383553,NA,NA,NA,NA,NA,NA,NA,NA,"2013_Jun_03_1202","PostTest",1,55,NA,2,"Ecken","FCB",3,"BVB","Kopf",0,1,"BVB --> FCB",1,35,"FCB"
"81","E_D_01.avi",425,0,0,0,0,NA,NA,NA,NA,NA,NA,NA,NA,1,6.13134797858,2,7.07745006698,NA,NA,NA,NA,NA,NA,NA,NA,"2013_Mai_25_2305","PostTest",1,17,NA,1,"Ecken","FCB",2,"BVB","Kopf",0,1,"BVB --> FCB",1,35,"FCB"
"82","E_D_01.avi",2545,0,0,0,0,NA,NA,NA,NA,NA,NA,NA,NA,2,4.19139639256,4,8.93608293792,NA,NA,NA,NA,NA,NA,NA,NA,"2013_Mai_25_2304","PostTest",1,56,NA,1,"Ecken","FCB",4,"BVB","Kopf",1,1,"BVB --> FCB",1,35,"FCB"
"83","E_D_01.avi",1008,0,0,0,0,NA,NA,NA,NA,NA,NA,NA,NA,1,11.8816952993,1,7.31233634442,NA,NA,NA,NA,NA,NA,NA,NA,"2013_Mai_25_2307","PostTest",1,28,NA,1,"Ecken","BVB",1,"BVB","Kopf",0,1,"BVB --> FCB",1,35,"FCB"
"84","E_D_01.avi",266,0,0,0,0,NA,NA,NA,NA,NA,NA,NA,NA,2,10.9071954676,1,2.78935535103,NA,NA,NA,NA,NA,NA,NA,NA,"2013_Mai_25_2307","PostTest",1,14,NA,1,"Ecken","FCB",1,"BVB","Kopf",1,1,"BVB --> FCB",1,35,"FCB"
"85","E_D_01.avi",1750,0,0,0,0,NA,NA,NA,NA,NA,NA,NA,NA,2,4.89199409422,4,3.2432831547,NA,NA,NA,NA,NA,NA,NA,NA,"2013_Mai_25_2306","PostTest",1,41,NA,1,"Ecken","FCB",4,"BVB","Kopf",1,1,"BVB --> FCB",1,35,"FCB"
"86","E_D_01.avi",2121,0,0,0,0,NA,NA,NA,NA,NA,NA,NA,NA,2,2.78241983269,4,3.18210554693,NA,NA,NA,NA,NA,NA,NA,NA,"2013_Mai_25_2319","PostTest",1,49,NA,1,"Ecken","FCB",4,"BVB","Kopf",1,1,"BVB --> FCB",1,35,"FCB"
"87","E_D_01.avi",1591,0,0,0,0,NA,NA,NA,NA,NA,NA,NA,NA,2,12.0850690521,4,2.34380843096,NA,NA,NA,NA,NA,NA,NA,NA,"2013_Mai_25_2311","PostTest",1,39,NA,1,"Ecken","FCB",4,"BVB","Kopf",1,1,"BVB --> FCB",1,35,"FCB"
"88","E_D_01.avi",2704,0,0,0,0,NA,NA,NA,NA,NA,NA,NA,NA,2,9.74285649433,3,3.45204180978,NA,NA,NA,NA,NA,NA,NA,NA,"2013_Mai_25_2306","PostTest",1,59,NA,1,"Ecken","FCB",3,"BVB","Kopf",1,1,"BVB --> FCB",1,35,"FCB"
"89","E_D_01.avi",1644,0,0,0,0,NA,NA,NA,NA,NA,NA,NA,NA,1,7.8985561014,5,3.69832422836,NA,NA,NA,NA,NA,NA,NA,NA,"2013_Mai_25_2308","PostTest",1,4,NA,1,"Ecken","FCB",5,"BVB","Kopf",0,1,"BVB --> FCB",1,35,"FCB"
"90","E_D_01.avi",386,0,0,0,0,NA,NA,NA,NA,NA,NA,NA,NA,1,3.88260910255,5,2.07473882854,NA,NA,NA,NA,NA,NA,NA,NA,"2013_Jun_05_1227","PostTest",1,6,NA,2,"Ecken","FCB",5,"BVB","Kopf",0,1,"BVB --> FCB",1,35,"FCB"
"91","E_D_01.avi",3022,0,0,0,0,NA,NA,NA,NA,NA,NA,NA,NA,2,13.9466627742,2,3.19027083051,NA,NA,NA,NA,NA,NA,NA,NA,"2013_Mai_25_2304","PostTest",1,9,NA,1,"Ecken","FCB",2,"BVB","Kopf",1,1,"BVB --> FCB",1,35,"FCB"
"92","E_D_01.avi",2916,0,0,0,0,NA,NA,NA,NA,NA,NA,NA,NA,1,1.45317072421,5,2.65573445787,NA,NA,NA,NA,NA,NA,NA,NA,"2013_Mai_25_2306","PostTest",1,7,NA,1,"Ecken","BVB",5,"BVB","Kopf",0,1,"BVB --> FCB",1,35,"FCB"
"93","E_D_01.avi",1485,0,0,0,0,NA,NA,NA,NA,NA,NA,NA,NA,1,8.90543183561,1,2.60777528988,NA,NA,NA,NA,NA,NA,NA,NA,"2013_Mai_25_2307","PostTest",1,36,NA,1,"Ecken","BVB",1,"BVB","Kopf",0,1,"BVB --> FCB",1,35,"FCB"
"94","E_D_01.avi",1687,0,0,0,0,NA,NA,NA,NA,NA,NA,NA,NA,2,4.21706641487,3,6.25834959471,NA,NA,NA,NA,NA,NA,NA,NA,"2013_Jun_03_1412","PostTest",1,24,NA,2,"Ecken","BVB",3,"BVB","Kopf",1,1,"BVB --> FCB",1,35,"FCB"
"95","E_D_01.avi",2226,0,0,0,0,NA,NA,NA,NA,NA,NA,NA,NA,1,6.86090885853,3,1.74024324321,NA,NA,NA,NA,NA,NA,NA,NA,"2013_Jun_03_1259","PostTest",1,31,NA,2,"Ecken","FCB",3,"BVB","Kopf",0,1,"BVB --> FCB",1,35,"FCB"
"96","E_D_01.avi",994,0,0,0,0,NA,NA,NA,NA,NA,NA,NA,NA,2,2.47672120339,3,2.91162256656,NA,NA,NA,NA,NA,NA,NA,NA,"2013_Jun_03_1431","PostTest",1,14,NA,2,"Ecken","FCB",3,"BVB","Kopf",1,1,"BVB --> FCB",1,35,"FCB"
"97","E_D_01.avi",2174,0,0,0,0,NA,NA,NA,NA,NA,NA,NA,NA,2,4.73595219504,1,1.32178251705,NA,NA,NA,NA,NA,NA,NA,NA,"2013_Mai_25_2308","PostTest",1,5,NA,1,"Ecken","BVB",1,"BVB","Kopf",1,1,"BVB --> FCB",1,35,"FCB"
"98","E_D_01.avi",1061,0,0,0,0,NA,NA,NA,NA,NA,NA,NA,NA,2,2.34265919272,4,2.54340174519,NA,NA,NA,NA,NA,NA,NA,NA,"2013_Mai_25_2308","PostTest",1,29,NA,1,"Ecken","BVB",4,"BVB","Kopf",1,1,"BVB --> FCB",1,35,"FCB"
"99","E_D_01.avi",617,0,0,0,0,NA,NA,NA,NA,NA,NA,NA,NA,2,4.70232669236,1,2.19188388468,NA,NA,NA,NA,NA,NA,NA,NA,"2013_Jun_03_0804","PostTest",1,9,NA,2,"Ecken","FCB",1,"BVB","Kopf",1,1,"BVB --> FCB",1,35,"FCB"
"100","E_D_01.avi",917,0,0,0,0,NA,NA,NA,NA,NA,NA,NA,NA,1,4.06647995765,3,1.8739767205,NA,NA,NA,NA,NA,NA,NA,NA,"2013_Jun_03_0857","PostTest",1,13,NA,2,"Ecken","FCB",3,"BVB","Kopf",0,1,"BVB --> FCB",1,35,"FCB"
"101","E_D_01.avi",1909,0,0,0,0,NA,NA,NA,NA,NA,NA,NA,NA,1,6.05249102889,3,3.88959015741,NA,NA,NA,NA,NA,NA,NA,NA,"2013_Mai_25_2305","PostTest",1,44,NA,1,"Ecken","BVB",3,"BVB","Kopf",0,1,"BVB --> FCB",1,35,"FCB"
"102","E_D_01.avi",1697,0,0,0,0,NA,NA,NA,NA,NA,NA,NA,NA,2,4.25409417665,4,5.54782936074,NA,NA,NA,NA,NA,NA,NA,NA,"2013_Mai_25_2307","PostTest",1,40,NA,1,"Ecken","BVB",4,"BVB","Kopf",1,1,"BVB --> FCB",1,35,"FCB"
"103","E_D_01.avi",309,0,0,0,0,NA,NA,NA,NA,NA,NA,NA,NA,1,2.09168148466,1,1.55615029284,NA,NA,NA,NA,NA,NA,NA,NA,"2013_Jun_03_1005","PostTest",1,5,NA,2,"Ecken","BVB",1,"BVB","Kopf",0,1,"BVB --> FCB",1,35,"FCB"
"104","E_D_01.avi",840,0,0,0,0,NA,NA,NA,NA,NA,NA,NA,NA,2,2.1252905048,2,1.4723631076,NA,NA,NA,NA,NA,NA,NA,NA,"2013_Jun_03_1458","PostTest",1,12,NA,2,"Ecken","FCB",2,"BVB","Kopf",1,1,"BVB --> FCB",1,35,"FCB"
"105","E_D_01.avi",3612,0,0,0,0,NA,NA,NA,NA,NA,NA,NA,NA,2,8.38372642333,5,2.44309514198,NA,NA,NA,NA,NA,NA,NA,NA,"2013_Jun_03_1210","PostTest",1,52,NA,2,"Ecken","BVB",5,"BVB","Kopf",1,1,"BVB --> FCB",1,35,"FCB"
"106","E_D_01.avi",2651,0,0,0,0,NA,NA,NA,NA,NA,NA,NA,NA,2,12.4376923603,2,4.52679956531,NA,NA,NA,NA,NA,NA,NA,NA,"2013_Mai_25_2306","PostTest",1,58,NA,1,"Ecken","BVB",2,"BVB","Kopf",1,1,"BVB --> FCB",1,35,"FCB"
"107","E_D_01.avi",1803,0,0,0,0,NA,NA,NA,NA,NA,NA,NA,NA,2,13.7314264802,4,9.80802532165,NA,NA,NA,NA,NA,NA,NA,NA,"2013_Mai_25_2304","PostTest",1,42,NA,1,"Ecken","BVB",4,"BVB","Kopf",1,1,"BVB --> FCB",1,35,"FCB"
"108","E_D_01.avi",3689,0,0,0,0,NA,NA,NA,NA,NA,NA,NA,NA,1,1.72348440933,1,1.99130727509,NA,NA,NA,NA,NA,NA,NA,NA,"2013_Jun_03_1359","PostTest",1,54,NA,2,"Ecken","BVB",1,"BVB","Kopf",0,1,"BVB --> FCB",1,35,"FCB"
"109","E_D_01.avi",1610,0,0,0,0,NA,NA,NA,NA,NA,NA,NA,NA,2,2.86143434431,1,1.30516252764,NA,NA,NA,NA,NA,NA,NA,NA,"2013_Jun_05_1717","PostTest",1,23,NA,2,"Ecken","BVB",1,"BVB","Kopf",1,1,"BVB --> FCB",1,35,"FCB"
"110","E_D_01.avi",686,0,0,0,0,NA,NA,NA,NA,NA,NA,NA,NA,2,7.59746839333,3,1.22140467573,NA,NA,NA,NA,NA,NA,NA,NA,"2013_Jun_05_0901","PostTest",1,10,NA,2,"Ecken","FCB",3,"BVB","Kopf",1,1,"BVB --> FCB",1,35,"FCB"
"111","E_D_01.avi",2015,0,0,0,0,NA,NA,NA,NA,NA,NA,NA,NA,2,1.95518760066,3,3.25604539124,NA,NA,NA,NA,NA,NA,NA,NA,"2013_Mai_25_2307","PostTest",1,47,NA,1,"Ecken","FCB",3,"BVB","Kopf",1,1,"BVB --> FCB",1,35,"FCB"
"112","E_D_01.avi",1538,0,0,0,0,NA,NA,NA,NA,NA,NA,NA,NA,2,3.04571893914,4,3.26306835087,NA,NA,NA,NA,NA,NA,NA,NA,"2013_Mai_25_2308","PostTest",1,38,NA,1,"Ecken","BVB",4,"BVB","Kopf",1,1,"BVB --> FCB",1,35,"FCB"
"113","E_D_01.avi",2757,0,0,0,0,NA,NA,NA,NA,NA,NA,NA,NA,1,5.40503807048,1,2.14248095778,NA,NA,NA,NA,NA,NA,NA,NA,"2013_Mai_25_2308","PostTest",1,6,NA,1,"Ecken","FCB",1,"BVB","Kopf",0,1,"BVB --> FCB",1,35,"FCB"
"114","E_D_01.avi",2969,0,0,0,0,NA,NA,NA,NA,NA,NA,NA,NA,2,10.7567978612,4,6.94845741568,NA,NA,NA,NA,NA,NA,NA,NA,"2013_Mai_25_2304","PostTest",1,8,NA,1,"Ecken","FCB",4,"BVB","Kopf",1,1,"BVB --> FCB",1,35,"FCB"
"115","E_D_03.1.avi",3846,0,3,3,3,NA,NA,NA,NA,NA,NA,NA,NA,2,2.82813011151,4,2.91154127131,NA,NA,NA,NA,NA,NA,NA,NA,"2013_Jun_03_0805","PostTest",1,56,NA,2,"Ecken","FCB",4,"BVB","Kopf",1,1,"BVB --> FCB",0,172,NA
"116","E_D_03.1.avi",3615,0,3,3,3,NA,NA,NA,NA,NA,NA,NA,NA,1,5.00338869884,5,1.05419040688,NA,NA,NA,NA,NA,NA,NA,NA,"2013_Jun_03_1210","PostTest",1,52,NA,2,"Ecken","BVB",5,"BVB","Kopf",0,1,"BVB --> FCB",0,172,NA
"117","E_D_03.1.avi",2383,0,3,3,3,NA,NA,NA,NA,NA,NA,NA,NA,2,1.08776059527,4,2.19206854502,NA,NA,NA,NA,NA,NA,NA,NA,"2013_Jun_03_1707","PostTest",1,33,NA,2,"Ecken","BVB",4,"BVB","Kopf",1,1,"BVB --> FCB",0,172,NA
"118","E_D_03.1.avi",3076,0,3,3,3,NA,NA,NA,NA,NA,NA,NA,NA,1,4.66895010399,2,1.58961320503,NA,NA,NA,NA,NA,NA,NA,NA,"2013_Jun_03_0902","PostTest",1,44,NA,2,"Ecken","BVB",2,"BVB","Kopf",0,1,"BVB --> FCB",0,172,NA
"119","E_D_03.1.avi",543,0,3,3,3,NA,NA,NA,NA,NA,NA,NA,NA,2,1.62311606643,5,0.234339001186,NA,NA,NA,NA,NA,NA,NA,NA,"2013_Jun_06_1539","PostTest",1,8,NA,2,"Ecken","FCB",5,"BVB","Kopf",1,1,"BVB --> FCB",0,172,NA
"120","E_D_03.1.avi",4077,0,3,3,3,NA,NA,NA,NA,NA,NA,NA,NA,2,2.3424952054,4,1.55619806428,NA,NA,NA,NA,NA,NA,NA,NA,"2013_Jun_03_0904","PostTest",1,59,NA,2,"Ecken","FCB",4,"BVB","Kopf",1,1,"BVB --> FCB",0,172,NA
"121","E_D_03.1.avi",389,0,3,3,3,NA,NA,NA,NA,NA,NA,NA,NA,1,2.89517410732,4,2.54345119282,NA,NA,NA,NA,NA,NA,NA,NA,"2013_Jun_05_1227","PostTest",1,6,NA,2,"Ecken","FCB",4,"BVB","Kopf",0,1,"BVB --> FCB",0,172,NA
"122","E_D_03.1.avi",1767,0,3,3,3,NA,NA,NA,NA,NA,NA,NA,NA,2,3.71508585588,2,1.75693921993,NA,NA,NA,NA,NA,NA,NA,NA,"2013_Jun_03_1121","PostTest",1,25,NA,2,"Ecken","BVB",2,"BVB","Kopf",1,1,"BVB --> FCB",0,172,NA
"123","E_D_03.1.avi",1382,0,3,3,3,NA,NA,NA,NA,NA,NA,NA,NA,1,1.90781901052,1,0.93694561739,NA,NA,NA,NA,NA,NA,NA,NA,"2013_Jun_03_1134","PostTest",1,20,NA,2,"Ecken","FCB",1,"BVB","Kopf",0,1,"BVB --> FCB",0,172,NA
"124","E_D_03.1.avi",1844,0,3,3,3,NA,NA,NA,NA,NA,NA,NA,NA,2,2.37621373666,3,3.73173378181,NA,NA,NA,NA,NA,NA,NA,NA,"2013_Jun_11_1106","PostTest",1,26,NA,2,"Ecken","FCB",3,"BVB","Kopf",1,1,"BVB --> FCB",0,172,NA
"125","E_D_03.1.avi",689,0,3,3,3,NA,NA,NA,NA,NA,NA,NA,NA,2,4.71921878339,5,0.535095102869,NA,NA,NA,NA,NA,NA,NA,NA,"2013_Jun_05_0901","PostTest",1,10,NA,2,"Ecken","FCB",5,"BVB","Kopf",1,1,"BVB --> FCB",0,172,NA
"126","E_D_03.1.avi",3384,0,3,3,3,NA,NA,NA,NA,NA,NA,NA,NA,2,2.67757578128,1,0.569527412003,NA,NA,NA,NA,NA,NA,NA,NA,"2013_Jun_03_0917","PostTest",1,49,NA,2,"Ecken","FCB",1,"BVB","Kopf",1,1,"BVB --> FCB",0,172,NA
"127","E_D_03.1.avi",2999,0,3,3,3,NA,NA,NA,NA,NA,NA,NA,NA,2,2.00799459149,3,1.13797312228,NA,NA,NA,NA,NA,NA,NA,NA,"2013_Jun_04_0925","PostTest",1,43,NA,2,"Ecken","FCB",3,"BVB","Kopf",1,1,"BVB --> FCB",0,172,NA
"128","E_D_03.1.avi",466,0,3,3,3,NA,NA,NA,NA,NA,NA,NA,NA,1,1.23812775087,1,1.99125084333,NA,NA,NA,NA,NA,NA,NA,NA,"2013_Jun_05_1650","PostTest",1,7,NA,2,"Ecken","BVB",1,"BVB","Kopf",0,1,"BVB --> FCB",0,172,NA
"129","E_D_03.1.avi",3538,0,3,3,3,NA,NA,NA,NA,NA,NA,NA,NA,2,2.15877213445,4,1.87402393321,NA,NA,NA,NA,NA,NA,NA,NA,"2013_Jun_05_1605","PostTest",1,51,NA,2,"Ecken","FCB",4,"BVB","Kopf",1,1,"BVB --> FCB",0,172,NA
"130","E_D_03.1.avi",920,0,3,3,3,NA,NA,NA,NA,NA,NA,NA,NA,2,1.05413537195,4,1.97472304441,NA,NA,NA,NA,NA,NA,NA,NA,"2013_Jun_03_0857","PostTest",1,13,NA,2,"Ecken","FCB",4,"BVB","Kopf",1,1,"BVB --> FCB",0,172,NA
"131","E_D_03.1.avi",3769,0,3,3,3,NA,NA,NA,NA,NA,NA,NA,NA,2,0.769789735846,2,1.12105309474,NA,NA,NA,NA,NA,NA,NA,NA,"2013_Jun_03_1202","PostTest",1,55,NA,2,"Ecken","FCB",2,"BVB","Kopf",1,1,"BVB --> FCB",0,172,NA
"132","E_D_03.1.avi",3692,0,3,3,3,NA,NA,NA,NA,NA,NA,NA,NA,2,1.22159659957,1,0.56885106906,NA,NA,NA,NA,NA,NA,NA,NA,"2013_Jun_03_1359","PostTest",1,54,NA,2,"Ecken","BVB",1,"BVB","Kopf",1,1,"BVB --> FCB",0,172,NA
"133","E_D_03.1.avi",3461,0,3,3,3,NA,NA,NA,NA,NA,NA,NA,NA,2,4.15017383494,2,1.00375774016,NA,NA,NA,NA,NA,NA,NA,NA,"2013_Jun_04_1159","PostTest",1,50,NA,2,"Ecken","FCB",2,"BVB","Kopf",1,1,"BVB --> FCB",0,172,NA
"134","E_D_03.1.avi",2229,0,3,3,3,NA,NA,NA,NA,NA,NA,NA,NA,2,1.90758099144,4,0.88697837295,NA,NA,NA,NA,NA,NA,NA,NA,"2013_Jun_03_1259","PostTest",1,31,NA,2,"Ecken","FCB",4,"BVB","Kopf",1,1,"BVB --> FCB",0,172,NA
"135","E_D_03.1.avi",1998,0,3,3,3,NA,NA,NA,NA,NA,NA,NA,NA,1,2.29275284987,1,3.54745170126,NA,NA,NA,NA,NA,NA,NA,NA,"2013_Jun_05_1107","PostTest",1,28,NA,2,"Ecken","BVB",1,"BVB","Kopf",0,1,"BVB --> FCB",0,172,NA
"136","E_D_03.1.avi",1151,0,3,3,3,NA,NA,NA,NA,NA,NA,NA,NA,2,2.27585517154,4,2.17538793338,NA,NA,NA,NA,NA,NA,NA,NA,"2013_Jun_04_1337","PostTest",1,17,NA,2,"Ecken","FCB",4,"BVB","Kopf",1,1,"BVB --> FCB",0,172,NA
"137","E_D_03.1.avi",4000,0,3,3,3,NA,NA,NA,NA,NA,NA,NA,NA,2,2.92839145757,4,2.09166639894,NA,NA,NA,NA,NA,NA,NA,NA,"2013_Jun_04_0905","PostTest",1,58,NA,2,"Ecken","BVB",4,"BVB","Kopf",1,1,"BVB --> FCB",0,172,NA
"138","E_D_03.1.avi",4231,0,3,3,3,NA,NA,NA,NA,NA,NA,NA,NA,2,2.12530559051,2,0.652668984466,NA,NA,NA,NA,NA,NA,NA,NA,"2013_Jun_04_1926","PostTest",1,61,NA,2,"Ecken","FCB",2,"BVB","Kopf",1,1,"BVB --> FCB",0,172,NA
"139","E_D_03.1.avi",81,0,3,3,3,NA,NA,NA,NA,NA,NA,NA,NA,2,3.49753949175,4,1.85743495333,NA,NA,NA,NA,NA,NA,NA,NA,"2013_Jun_03_1707","PostTest",1,2,NA,2,"Ecken","FCB",4,"BVB","Kopf",1,1,"BVB --> FCB",0,172,NA
"140","E_D_03.1.avi",2306,0,3,3,3,NA,NA,NA,NA,NA,NA,NA,NA,2,2.86159190623,4,1.22153653607,NA,NA,NA,NA,NA,NA,NA,NA,"2013_Jun_04_1959","PostTest",1,32,NA,2,"Ecken","BVB",4,"BVB","Kopf",1,1,"BVB --> FCB",0,172,NA
"141","E_D_03.1.avi",2691,0,3,3,3,NA,NA,NA,NA,NA,NA,NA,NA,2,1.55636791827,4,2.94489187872,NA,NA,NA,NA,NA,NA,NA,NA,"2013_Jun_03_1017","PostTest",1,38,NA,2,"Ecken","BVB",4,"BVB","Kopf",1,1,"BVB --> FCB",0,172,NA
"142","E_D_03.1.avi",4154,0,3,3,3,NA,NA,NA,NA,NA,NA,NA,NA,2,1.60676594372,4,2.10768156288,NA,NA,NA,NA,NA,NA,NA,NA,"2013_Jun_03_0930","PostTest",1,60,NA,2,"Ecken","BVB",4,"BVB","Kopf",1,1,"BVB --> FCB",0,172,NA
"143","E_D_03.1.avi",620,0,3,3,3,NA,NA,NA,NA,NA,NA,NA,NA,2,3.16286958259,1,0.284212937678,NA,NA,NA,NA,NA,NA,NA,NA,"2013_Jun_03_0804","PostTest",1,9,NA,2,"Ecken","FCB",1,"BVB","Kopf",1,1,"BVB --> FCB",0,172,NA
"144","E_D_03.1.avi",2845,0,3,3,3,NA,NA,NA,NA,NA,NA,NA,NA,2,3.61470270663,1,1.25470108631,NA,NA,NA,NA,NA,NA,NA,NA,"2013_Jun_03_1239","PostTest",1,40,NA,2,"Ecken","BVB",1,"BVB","Kopf",1,1,"BVB --> FCB",0,172,NA
"145","E_D_03.1.avi",2614,0,3,3,3,NA,NA,NA,NA,NA,NA,NA,NA,2,2.79449566914,1,0.418423011863,NA,NA,NA,NA,NA,NA,NA,NA,"2013_Jun_03_1100","PostTest",1,36,NA,2,"Ecken","BVB",1,"BVB","Kopf",1,1,"BVB --> FCB",0,172,NA
"146","E_D_03.1.avi",3923,0,3,3,3,NA,NA,NA,NA,NA,NA,NA,NA,1,2.0583456836,4,0.334569896453,NA,NA,NA,NA,NA,NA,NA,NA,"2013_Jun_03_1355","PostTest",1,57,NA,2,"Ecken","FCB",4,"BVB","Kopf",0,1,"BVB --> FCB",0,172,NA
"147","E_D_03.1.avi",158,0,3,3,3,NA,NA,NA,NA,NA,NA,NA,NA,2,1.42226595838,4,0.334778861559,NA,NA,NA,NA,NA,NA,NA,NA,"2013_Jun_04_2052","PostTest",1,3,NA,2,"Ecken","BVB",4,"BVB","Kopf",1,1,"BVB --> FCB",0,172,NA
"148","E_D_03.1.avi",3230,0,3,3,3,NA,NA,NA,NA,NA,NA,NA,NA,1,3.09587559313,2,1.9576289724,NA,NA,NA,NA,NA,NA,NA,NA,"2013_Jun_05_1401","PostTest",1,47,NA,2,"Ecken","FCB",2,"BVB","Kopf",0,1,"BVB --> FCB",0,172,NA
"149","E_D_03.1.avi",312,0,3,3,3,NA,NA,NA,NA,NA,NA,NA,NA,2,1.69022459558,4,1.4390348494,NA,NA,NA,NA,NA,NA,NA,NA,"2013_Jun_03_1005","PostTest",1,5,NA,2,"Ecken","BVB",4,"BVB","Kopf",1,1,"BVB --> FCB",0,172,NA
"150","E_D_03.1.avi",1921,0,3,3,3,NA,NA,NA,NA,NA,NA,NA,NA,2,3.46400645892,5,1.15434363865,NA,NA,NA,NA,NA,NA,NA,NA,"2013_Jun_05_1419","PostTest",1,15,NA,2,"Ecken","FCB",5,"BVB","Kopf",1,1,"BVB --> FCB",0,172,NA
"151","E_D_03.1.avi",3153,0,3,3,3,NA,NA,NA,NA,NA,NA,NA,NA,1,3.46402601448,2,0.56864405951,NA,NA,NA,NA,NA,NA,NA,NA,"2013_Jun_05_1807","PostTest",1,53,NA,2,"Ecken","FCB",2,"BVB","Kopf",0,1,"BVB --> FCB",0,172,NA
"152","E_D_03.1.avi",1305,0,3,3,3,NA,NA,NA,NA,NA,NA,NA,NA,1,0.267588199059,1,0.201169422371,NA,NA,NA,NA,NA,NA,NA,NA,"2013_Jun_03_1134","PostTest",1,19,NA,2,"Ecken","FCB",1,"BVB","Kopf",0,1,"BVB --> FCB",0,172,NA
"153","E_D_03.1.avi",4,0,3,3,3,NA,NA,NA,NA,NA,NA,NA,NA,2,3.53096161663,2,1.17106224394,NA,NA,NA,NA,NA,NA,NA,NA,"2013_Jun_03_1501","PostTest",1,1,NA,2,"Ecken","BVB",2,"BVB","Kopf",1,1,"BVB --> FCB",0,172,NA
"154","E_D_03.1.avi",997,0,3,3,3,NA,NA,NA,NA,NA,NA,NA,NA,2,1.35557452134,2,1.25487820379,NA,NA,NA,NA,NA,NA,NA,NA,"2013_Jun_03_1431","PostTest",1,14,NA,2,"Ecken","FCB",2,"BVB","Kopf",1,1,"BVB --> FCB",0,172,NA
"155","E_D_03.1.avi",1228,0,3,3,3,NA,NA,NA,NA,NA,NA,NA,NA,2,3.34694297739,1,0.434755813937,NA,NA,NA,NA,NA,NA,NA,NA,"2013_Jun_03_1559","PostTest",1,18,NA,2,"Ecken","FCB",1,"BVB","Kopf",1,1,"BVB --> FCB",0,172,NA
"156","E_D_03.1.avi",1690,0,3,3,3,NA,NA,NA,NA,NA,NA,NA,NA,1,2.4099669092,4,0.100124177794,NA,NA,NA,NA,NA,NA,NA,NA,"2013_Jun_03_1412","PostTest",1,24,NA,2,"Ecken","BVB",4,"BVB","Kopf",0,1,"BVB --> FCB",0,172,NA
"157","E_D_03.1.avi",3307,0,3,3,3,NA,NA,NA,NA,NA,NA,NA,NA,1,1.35555748007,3,2.00778339146,NA,NA,NA,NA,NA,NA,NA,NA,"2013_Jun_04_1603","PostTest",1,48,NA,2,"Ecken","FCB",3,"BVB","Kopf",0,1,"BVB --> FCB",0,172,NA
"158","E_D_03.1.avi",2460,0,3,3,3,NA,NA,NA,NA,NA,NA,NA,NA,1,8.03229404855,5,1.75716718186,NA,NA,NA,NA,NA,NA,NA,NA,"2013_Jun_04_1339","PostTest",1,34,NA,2,"Ecken","BVB",5,"BVB","Kopf",0,1,"BVB --> FCB",0,172,NA
"159","E_D_03.1.avi",1074,0,3,3,3,NA,NA,NA,NA,NA,NA,NA,NA,2,1.40569904834,3,0.987234969808,NA,NA,NA,NA,NA,NA,NA,NA,"2013_Jun_03_1557","PostTest",1,16,NA,2,"Ecken","FCB",3,"BVB","Kopf",1,1,"BVB --> FCB",0,172,NA
"160","E_D_03.1.avi",1613,0,3,3,3,NA,NA,NA,NA,NA,NA,NA,NA,2,2.49356133252,3,5.22069257406,NA,NA,NA,NA,NA,NA,NA,NA,"2013_Jun_05_1717","PostTest",1,23,NA,2,"Ecken","BVB",3,"BVB","Kopf",1,1,"BVB --> FCB",0,172,NA
"161","E_D_03.1.avi",2152,0,3,3,3,NA,NA,NA,NA,NA,NA,NA,NA,2,1.90466944821,3,0.769864885062,NA,NA,NA,NA,NA,NA,NA,NA,"2013_Jun_05_1759","PostTest",1,30,NA,2,"Ecken","BVB",3,"BVB","Kopf",1,1,"BVB --> FCB",0,172,NA
"162","E_D_03.1.avi",1459,0,3,3,3,NA,NA,NA,NA,NA,NA,NA,NA,1,7.06190563326,2,2.57704093677,NA,NA,NA,NA,NA,NA,NA,NA,"2013_Jun_04_1337","PostTest",1,21,NA,2,"Ecken","FCB",2,"BVB","Kopf",0,1,"BVB --> FCB",0,172,NA
"163","E_D_03.1.avi",766,0,3,3,3,NA,NA,NA,NA,NA,NA,NA,NA,2,1.84073757978,5,1.48931442404,NA,NA,NA,NA,NA,NA,NA,NA,"2013_Jun_03_1001","PostTest",1,11,NA,2,"Ecken","FCB",5,"BVB","Kopf",1,1,"BVB --> FCB",0,172,NA
"164","E_D_03.1.avi",1536,0,3,3,3,NA,NA,NA,NA,NA,NA,NA,NA,2,2.97859951474,1,2.12507371747,NA,NA,NA,NA,NA,NA,NA,NA,"2013_Jun_04_1322","PostTest",1,22,NA,2,"Ecken","FCB",1,"BVB","Kopf",1,1,"BVB --> FCB",0,172,NA
"165","E_D_03.1.avi",2075,0,3,3,3,NA,NA,NA,NA,NA,NA,NA,NA,2,1.01926501832,2,0.228646936971,NA,NA,NA,NA,NA,NA,NA,NA,"2013_Jun_14_1400","PostTest",1,29,NA,2,"Ecken","BVB",2,"BVB","Kopf",1,1,"BVB --> FCB",0,172,NA
"166","E_D_03.1.avi",2768,0,3,3,3,NA,NA,NA,NA,NA,NA,NA,NA,2,1.0710009233,4,0.384770410765,NA,NA,NA,NA,NA,NA,NA,NA,"2013_Jun_03_0954","PostTest",1,39,NA,2,"Ecken","FCB",4,"BVB","Kopf",1,1,"BVB --> FCB",0,172,NA
"167","E_D_03.1.avi",2922,0,3,3,3,NA,NA,NA,NA,NA,NA,NA,NA,2,2.35982422347,3,0.451205390629,NA,NA,NA,NA,NA,NA,NA,NA,"2013_Jun_04_1603","PostTest",1,41,NA,2,"Ecken","FCB",3,"BVB","Kopf",1,1,"BVB --> FCB",0,172,NA
"168","E_D_03.1.avi",843,0,3,3,3,NA,NA,NA,NA,NA,NA,NA,NA,2,1.4559336452,2,0.200678857229,NA,NA,NA,NA,NA,NA,NA,NA,"2013_Jun_03_1458","PostTest",1,12,NA,2,"Ecken","FCB",2,"BVB","Kopf",1,1,"BVB --> FCB",0,172,NA
"169","E_D_03.1.avi",2537,0,3,3,3,NA,NA,NA,NA,NA,NA,NA,NA,2,1.63982796696,4,0.970742929618,NA,NA,NA,NA,NA,NA,NA,NA,"2013_Jun_03_1558","PostTest",1,35,NA,2,"Ecken","FCB",4,"BVB","Kopf",1,1,"BVB --> FCB",0,172,NA
"170","E_D_03.1.avi",235,0,3,3,3,NA,NA,NA,NA,NA,NA,NA,NA,2,2.64403799924,1,0.987026563432,NA,NA,NA,NA,NA,NA,NA,NA,"2013_Jun_04_1612","PostTest",1,4,NA,2,"Ecken","FCB",1,"BVB","Kopf",1,1,"BVB --> FCB",0,172,NA
"171","E_D_03.avi",1328,0,2,2,2,NA,NA,NA,NA,NA,NA,NA,NA,2,3.41385930335,2,2.67721595901,NA,NA,NA,NA,NA,NA,NA,NA,"2013_Mai_25_2308","PostTest",1,33,NA,1,"Ecken","BVB",2,"BVB","Kopf",1,1,"BVB --> FCB",1,165,"FCB"
"172","E_D_03.avi",1010,0,2,2,2,NA,NA,NA,NA,NA,NA,NA,NA,1,3.06238390633,2,1.82391979986,NA,NA,NA,NA,NA,NA,NA,NA,"2013_Mai_25_2307","PostTest",1,28,NA,1,"Ecken","BVB",2,"BVB","Kopf",0,1,"BVB --> FCB",1,165,"FCB"
"173","E_D_03.avi",2176,0,2,2,2,NA,NA,NA,NA,NA,NA,NA,NA,2,2.69407452623,3,0.401696584342,NA,NA,NA,NA,NA,NA,NA,NA,"2013_Mai_25_2308","PostTest",1,5,NA,1,"Ecken","BVB",3,"BVB","Kopf",1,1,"BVB --> FCB",1,165,"FCB"
"174","E_D_03.avi",3845,0,2,2,2,NA,NA,NA,NA,NA,NA,NA,NA,2,5.25446418469,4,1.70694990564,NA,NA,NA,NA,NA,NA,NA,NA,"2013_Jun_03_0805","PostTest",1,56,NA,2,"Ecken","FCB",4,"BVB","Kopf",1,1,"BVB --> FCB",1,165,"FCB"
"175","E_D_03.avi",957,0,2,2,2,NA,NA,NA,NA,NA,NA,NA,NA,2,3.42439164754,2,2.0876354397,NA,NA,NA,NA,NA,NA,NA,NA,"2013_Mai_25_2305","PostTest",1,26,NA,1,"Ecken","FCB",2,"BVB","Kopf",1,1,"BVB --> FCB",1,165,"FCB"
"176","E_D_03.avi",1699,0,2,2,2,NA,NA,NA,NA,NA,NA,NA,NA,1,1.29827648463,2,1.87532692206,NA,NA,NA,NA,NA,NA,NA,NA,"2013_Mai_25_2307","PostTest",1,40,NA,1,"Ecken","BVB",2,"BVB","Kopf",0,1,"BVB --> FCB",1,165,"FCB"
"177","E_D_03.avi",542,0,2,2,2,NA,NA,NA,NA,NA,NA,NA,NA,2,4.66877717699,4,0.451830889121,NA,NA,NA,NA,NA,NA,NA,NA,"2013_Jun_06_1539","PostTest",1,8,NA,2,"Ecken","FCB",4,"BVB","Kopf",1,1,"BVB --> FCB",1,165,"FCB"
"178","E_D_03.avi",851,0,2,2,2,NA,NA,NA,NA,NA,NA,NA,NA,2,3.62476571743,2,1.48644813796,NA,NA,NA,NA,NA,NA,NA,NA,"2013_Mai_25_2307","PostTest",1,24,NA,1,"Ecken","BVB",2,"BVB","Kopf",1,1,"BVB --> FCB",1,165,"FCB"
"179","E_D_03.avi",3306,0,2,2,2,NA,NA,NA,NA,NA,NA,NA,NA,2,6.91126162683,2,1.37194392025,NA,NA,NA,NA,NA,NA,NA,NA,"2013_Jun_04_1603","PostTest",1,48,NA,2,"Ecken","FCB",2,"BVB","Kopf",1,1,"BVB --> FCB",1,165,"FCB"
"180","E_D_03.avi",3922,0,2,2,2,NA,NA,NA,NA,NA,NA,NA,NA,2,1.20488805141,4,0.585591185472,NA,NA,NA,NA,NA,NA,NA,NA,"2013_Jun_03_1355","PostTest",1,57,NA,2,"Ecken","FCB",4,"BVB","Kopf",1,1,"BVB --> FCB",1,165,"FCB"
"181","E_D_03.avi",1805,0,2,2,2,NA,NA,NA,NA,NA,NA,NA,NA,2,15.5587844265,2,4.77833607344,NA,NA,NA,NA,NA,NA,NA,NA,"2013_Mai_25_2304","PostTest",1,42,NA,1,"Ecken","BVB",2,"BVB","Kopf",1,1,"BVB --> FCB",1,165,"FCB"
"182","E_D_03.avi",1381,0,2,2,2,NA,NA,NA,NA,NA,NA,NA,NA,2,2.44322616422,1,0.51865167221,NA,NA,NA,NA,NA,NA,NA,NA,"2013_Jun_03_1134","PostTest",1,20,NA,2,"Ecken","FCB",1,"BVB","Kopf",1,1,"BVB --> FCB",1,165,"FCB"
"183","E_D_03.avi",1227,0,2,2,2,NA,NA,NA,NA,NA,NA,NA,NA,1,3.12936001643,1,1.10434259103,NA,NA,NA,NA,NA,NA,NA,NA,"2013_Jun_03_1559","PostTest",1,18,NA,2,"Ecken","FCB",1,"BVB","Kopf",0,1,"BVB --> FCB",1,165,"FCB"
"184","E_D_03.avi",268,0,2,2,2,NA,NA,NA,NA,NA,NA,NA,NA,1,1.80397229257,3,1.98758222065,NA,NA,NA,NA,NA,NA,NA,NA,"2013_Mai_25_2307","PostTest",1,14,NA,1,"Ecken","FCB",3,"BVB","Kopf",0,1,"BVB --> FCB",1,165,"FCB"
"185","E_D_03.avi",745,0,2,2,2,NA,NA,NA,NA,NA,NA,NA,NA,1,1.62024503114,2,1.48651462686,NA,NA,NA,NA,NA,NA,NA,NA,"2013_Mai_25_2304","PostTest",1,22,NA,1,"Ecken","FCB",2,"BVB","Kopf",0,1,"BVB --> FCB",1,165,"FCB"
"186","E_D_03.avi",157,0,2,2,2,NA,NA,NA,NA,NA,NA,NA,NA,1,1.77392350145,2,2.52670772403,NA,NA,NA,NA,NA,NA,NA,NA,"2013_Jun_04_2052","PostTest",1,3,NA,2,"Ecken","BVB",2,"BVB","Kopf",0,1,"BVB --> FCB",1,165,"FCB"
"187","E_D_03.avi",2070,0,2,2,2,NA,NA,NA,NA,NA,NA,NA,NA,2,2.15094427861,4,0.71676211833,NA,NA,NA,NA,NA,NA,NA,NA,"2013_Mai_25_2318","PostTest",1,48,NA,1,"Ecken","FCB",4,"BVB","Kopf",1,1,"BVB --> FCB",1,165,"FCB"
"188","E_D_03.avi",1222,0,2,2,2,NA,NA,NA,NA,NA,NA,NA,NA,2,3.61469209075,2,3.78191557866,NA,NA,NA,NA,NA,NA,NA,NA,"2013_May_25_2308","PostTest",1,31,NA,1,"Ecken","FCB",2,"BVB","Kopf",1,1,"BVB --> FCB",1,165,"FCB"
"189","E_D_03.avi",586,0,2,2,2,NA,NA,NA,NA,NA,NA,NA,NA,1,4.86016965843,4,1.78979590982,NA,NA,NA,NA,NA,NA,NA,NA,"2013_Mai_25_2308","PostTest",1,2,NA,1,"Ecken","FCB",4,"BVB","Kopf",0,1,"BVB --> FCB",1,165,"FCB"
"190","E_D_03.avi",3,0,2,2,2,NA,NA,NA,NA,NA,NA,NA,NA,2,1.62323451724,1,0.401750222444,NA,NA,NA,NA,NA,NA,NA,NA,"2013_Mai_25_2309","PostTest",1,1,NA,1,"Ecken","BVB",1,"BVB","Kopf",1,1,"BVB --> FCB",1,165,"FCB"
"191","E_D_03.avi",374,0,2,2,2,NA,NA,NA,NA,NA,NA,NA,NA,2,4.36495727809,3,1.29948219676,NA,NA,NA,NA,NA,NA,NA,NA,"2013_Mai_25_2305","PostTest",1,16,NA,1,"Ecken","FCB",3,"BVB","Kopf",1,1,"BVB --> FCB",1,165,"FCB"
"192","E_D_03.avi",1593,0,2,2,2,NA,NA,NA,NA,NA,NA,NA,NA,2,1.83911747163,5,1.68958247487,NA,NA,NA,NA,NA,NA,NA,NA,"2013_Mai_25_2311","PostTest",1,39,NA,1,"Ecken","FCB",5,"BVB","Kopf",1,1,"BVB --> FCB",1,165,"FCB"
"193","E_D_03.avi",1911,0,2,2,2,NA,NA,NA,NA,NA,NA,NA,NA,1,3.25247622254,4,2.69935787928,NA,NA,NA,NA,NA,NA,NA,NA,"2013_Mai_25_2305","PostTest",1,44,NA,1,"Ecken","BVB",4,"BVB","Kopf",0,1,"BVB --> FCB",1,165,"FCB"
"194","E_D_03.avi",1487,0,2,2,2,NA,NA,NA,NA,NA,NA,NA,NA,1,5.05365346713,1,0.987284696798,NA,NA,NA,NA,NA,NA,NA,NA,"2013_Mai_25_2307","PostTest",1,36,NA,1,"Ecken","BVB",1,"BVB","Kopf",0,1,"BVB --> FCB",1,165,"FCB"
"195","E_D_03.avi",2459,0,2,2,2,NA,NA,NA,NA,NA,NA,NA,NA,2,7.74785007592,3,6.09118561158,NA,NA,NA,NA,NA,NA,NA,NA,"2013_Jun_04_1339","PostTest",1,34,NA,2,"Ecken","BVB",3,"BVB","Kopf",1,1,"BVB --> FCB",1,165,"FCB"
"196","E_D_03.avi",4076,0,2,2,2,NA,NA,NA,NA,NA,NA,NA,NA,1,1.9914072878,3,1.89080958613,NA,NA,NA,NA,NA,NA,NA,NA,"2013_Jun_03_0904","PostTest",1,59,NA,2,"Ecken","FCB",3,"BVB","Kopf",0,1,"BVB --> FCB",1,165,"FCB"
"197","E_D_03.avi",2918,0,2,2,2,NA,NA,NA,NA,NA,NA,NA,NA,2,2.27154093607,4,1.93761134446,NA,NA,NA,NA,NA,NA,NA,NA,"2013_Mai_25_2306","PostTest",1,7,NA,1,"Ecken","BVB",4,"BVB","Kopf",1,1,"BVB --> FCB",1,165,"FCB"
"198","E_D_03.avi",2844,0,2,2,2,NA,NA,NA,NA,NA,NA,NA,NA,2,1.79062506548,2,2.05822583597,NA,NA,NA,NA,NA,NA,NA,NA,"2013_Jun_03_1239","PostTest",1,40,NA,2,"Ecken","BVB",2,"BVB","Kopf",1,1,"BVB --> FCB",1,165,"FCB"
"199","E_D_03.avi",3999,0,2,2,2,NA,NA,NA,NA,NA,NA,NA,NA,1,4.23386659478,4,1.50595368964,NA,NA,NA,NA,NA,NA,NA,NA,"2013_Jun_04_0905","PostTest",1,58,NA,2,"Ecken","BVB",4,"BVB","Kopf",0,1,"BVB --> FCB",1,165,"FCB"
"200","E_D_03.avi",4230,0,2,2,2,NA,NA,NA,NA,NA,NA,NA,NA,1,2.59367293888,2,1.15449281962,NA,NA,NA,NA,NA,NA,NA,NA,"2013_Jun_04_1926","PostTest",1,61,NA,2,"Ecken","FCB",2,"BVB","Kopf",0,1,"BVB --> FCB",1,165,"FCB"
"201","E_D_03.avi",480,0,2,2,2,NA,NA,NA,NA,NA,NA,NA,NA,2,4.81506616064,1,1.6494046031,NA,NA,NA,NA,NA,NA,NA,NA,"2013_Mai_25_2304","PostTest",1,18,NA,1,"Ecken","FCB",1,"BVB","Kopf",1,1,"BVB --> FCB",1,165,"FCB"
"202","E_D_03.avi",2335,0,2,2,2,NA,NA,NA,NA,NA,NA,NA,NA,2,12.4570885406,1,3.33620921095,NA,NA,NA,NA,NA,NA,NA,NA,"2013_Mai_25_2304","PostTest",1,52,NA,1,"Ecken","BVB",1,"BVB","Kopf",1,1,"BVB --> FCB",1,165,"FCB"
"203","E_D_03.avi",2706,0,2,2,2,NA,NA,NA,NA,NA,NA,NA,NA,2,2.82028162797,5,1.77533673973,NA,NA,NA,NA,NA,NA,NA,NA,"2013_Mai_25_2306","PostTest",1,59,NA,1,"Ecken","FCB",5,"BVB","Kopf",1,1,"BVB --> FCB",1,165,"FCB"
"204","E_D_03.avi",1964,0,2,2,2,NA,NA,NA,NA,NA,NA,NA,NA,1,3.22374463794,2,0.835229337807,NA,NA,NA,NA,NA,NA,NA,NA,"2013_Mai_25_2307","PostTest",1,45,NA,1,"Ecken","FCB",2,"BVB","Kopf",0,1,"BVB --> FCB",1,165,"FCB"
"205","E_D_03.avi",1458,0,2,2,2,NA,NA,NA,NA,NA,NA,NA,NA,1,14.4250132349,3,2.39295413244,NA,NA,NA,NA,NA,NA,NA,NA,"2013_Jun_04_1337","PostTest",1,21,NA,2,"Ecken","FCB",3,"BVB","Kopf",0,1,"BVB --> FCB",1,165,"FCB"
"206","E_D_03.avi",842,0,2,2,2,NA,NA,NA,NA,NA,NA,NA,NA,2,1.55632433731,2,0.200686120722,NA,NA,NA,NA,NA,NA,NA,NA,"2013_Jun_03_1458","PostTest",1,12,NA,2,"Ecken","FCB",2,"BVB","Kopf",1,1,"BVB --> FCB",1,165,"FCB"
"207","E_D_03.avi",2690,0,2,2,2,NA,NA,NA,NA,NA,NA,NA,NA,2,3.24615111697,3,0.585573026739,NA,NA,NA,NA,NA,NA,NA,NA,"2013_Jun_03_1017","PostTest",1,38,NA,2,"Ecken","BVB",3,"BVB","Kopf",1,1,"BVB --> FCB",1,165,"FCB"
"208","E_D_03.avi",1116,0,2,2,2,NA,NA,NA,NA,NA,NA,NA,NA,2,2.66045656641,1,1.87434743801,NA,NA,NA,NA,NA,NA,NA,NA,"2013_Mai_25_2321","PostTest",1,3,NA,1,"Ecken","BVB",1,"BVB","Kopf",1,1,"BVB --> FCB",1,165,"FCB"
"209","E_D_03.avi",2971,0,2,2,2,NA,NA,NA,NA,NA,NA,NA,NA,2,3.42414804116,3,2.03766009367,NA,NA,NA,NA,NA,NA,NA,NA,"2013_Mai_25_2304","PostTest",1,8,NA,1,"Ecken","FCB",3,"BVB","Kopf",1,1,"BVB --> FCB",1,165,"FCB"
"210","E_D_03.avi",3229,0,2,2,2,NA,NA,NA,NA,NA,NA,NA,NA,2,2.35963090281,2,1.15434782912,NA,NA,NA,NA,NA,NA,NA,NA,"2013_Jun_05_1401","PostTest",1,47,NA,2,"Ecken","FCB",2,"BVB","Kopf",1,1,"BVB --> FCB",1,165,"FCB"
"211","E_D_03.avi",234,0,2,2,2,NA,NA,NA,NA,NA,NA,NA,NA,1,2.35940769008,2,2.27592333663,NA,NA,NA,NA,NA,NA,NA,NA,"2013_Jun_04_1612","PostTest",1,4,NA,2,"Ecken","FCB",2,"BVB","Kopf",0,1,"BVB --> FCB",1,165,"FCB"
"212","E_D_03.avi",2441,0,2,2,2,NA,NA,NA,NA,NA,NA,NA,NA,1,2.52314805373,3,3.62497552063,NA,NA,NA,NA,NA,NA,NA,NA,"2013_Mai_25_2303","PostTest",1,54,NA,1,"Ecken","BVB",3,"BVB","Kopf",0,1,"BVB --> FCB",1,165,"FCB"
"213","E_D_03.avi",388,0,2,2,2,NA,NA,NA,NA,NA,NA,NA,NA,1,2.67751962889,3,2.44290740862,NA,NA,NA,NA,NA,NA,NA,NA,"2013_Jun_05_1227","PostTest",1,6,NA,2,"Ecken","FCB",3,"BVB","Kopf",0,1,"BVB --> FCB",1,165,"FCB"
"214","E_D_03.avi",2812,0,2,2,2,NA,NA,NA,NA,NA,NA,NA,NA,2,1.63699688089,4,2.70577266105,NA,NA,NA,NA,NA,NA,NA,NA,"2013_Mai_25_2306","PostTest",1,60,NA,1,"Ecken","BVB",4,"BVB","Kopf",1,1,"BVB --> FCB",1,165,"FCB"
"215","E_D_03.avi",109,0,2,2,2,NA,NA,NA,NA,NA,NA,NA,NA,2,2.69081433534,4,1.81894458653,NA,NA,NA,NA,NA,NA,NA,NA,"2013_Mai_25_2305","PostTest",1,11,NA,1,"Ecken","FCB",4,"BVB","Kopf",1,1,"BVB --> FCB",1,165,"FCB"
"216","E_D_03.avi",2865,0,2,2,2,NA,NA,NA,NA,NA,NA,NA,NA,2,5.07501316508,4,2.27178426308,NA,NA,NA,NA,NA,NA,NA,NA,"2013_Mai_25_2307","PostTest",1,61,NA,1,"Ecken","FCB",4,"BVB","Kopf",1,1,"BVB --> FCB",1,165,"FCB"
"217","E_D_03.avi",2017,0,2,2,2,NA,NA,NA,NA,NA,NA,NA,NA,2,1.36950562152,2,1.78723916028,NA,NA,NA,NA,NA,NA,NA,NA,"2013_Mai_25_2307","PostTest",1,47,NA,1,"Ecken","FCB",2,"BVB","Kopf",1,1,"BVB --> FCB",1,165,"FCB"
"218","E_D_03.avi",798,0,2,2,2,NA,NA,NA,NA,NA,NA,NA,NA,2,3.70520191812,3,2.38069335628,NA,NA,NA,NA,NA,NA,NA,NA,"2013_Mai_25_2303","PostTest",1,23,NA,1,"Ecken","BVB",3,"BVB","Kopf",1,1,"BVB --> FCB",1,165,"FCB"
"219","E_D_03.avi",80,0,2,2,2,NA,NA,NA,NA,NA,NA,NA,NA,1,3.38017066415,3,1.37227748219,NA,NA,NA,NA,NA,NA,NA,NA,"2013_Jun_03_1707","PostTest",1,2,NA,2,"Ecken","FCB",3,"BVB","Kopf",0,1,"BVB --> FCB",1,165,"FCB"
"220","E_D_03.avi",1540,0,2,2,2,NA,NA,NA,NA,NA,NA,NA,NA,2,4.19973320632,4,2.05779701051,NA,NA,NA,NA,NA,NA,NA,NA,"2013_Mai_25_2308","PostTest",1,38,NA,1,"Ecken","BVB",4,"BVB","Kopf",1,1,"BVB --> FCB",1,165,"FCB"
"221","E_D_03.avi",3075,0,2,2,2,NA,NA,NA,NA,NA,NA,NA,NA,1,3.14612806935,3,1.89061542738,NA,NA,NA,NA,NA,NA,NA,NA,"2013_Jun_03_0902","PostTest",1,44,NA,2,"Ecken","BVB",3,"BVB","Kopf",0,1,"BVB --> FCB",1,165,"FCB"
"222","E_D_03.avi",3691,0,2,2,2,NA,NA,NA,NA,NA,NA,NA,NA,1,1.723610403,1,0.836724779267,NA,NA,NA,NA,NA,NA,NA,NA,"2013_Jun_03_1359","PostTest",1,54,NA,2,"Ecken","BVB",1,"BVB","Kopf",0,1,"BVB --> FCB",1,165,"FCB"
"223","E_D_03.avi",2547,0,2,2,2,NA,NA,NA,NA,NA,NA,NA,NA,2,4.57837937503,4,1.89317133882,NA,NA,NA,NA,NA,NA,NA,NA,"2013_Mai_25_2304","PostTest",1,56,NA,1,"Ecken","FCB",4,"BVB","Kopf",1,1,"BVB --> FCB",1,165,"FCB"
"224","E_D_03.avi",3460,0,2,2,2,NA,NA,NA,NA,NA,NA,NA,NA,2,2.96184151896,2,4.41772655463,NA,NA,NA,NA,NA,NA,NA,NA,"2013_Jun_04_1159","PostTest",1,50,NA,2,"Ecken","FCB",2,"BVB","Kopf",1,1,"BVB --> FCB",1,165,"FCB"
"225","E_D_03.avi",1997,0,2,2,2,NA,NA,NA,NA,NA,NA,NA,NA,2,2.59384949763,4,1.840727802,NA,NA,NA,NA,NA,NA,NA,NA,"2013_Jun_05_1107","PostTest",1,28,NA,2,"Ecken","BVB",4,"BVB","Kopf",1,1,"BVB --> FCB",1,165,"FCB"
"226","E_D_03.avi",215,0,2,2,2,NA,NA,NA,NA,NA,NA,NA,NA,2,4.22587060646,3,5.61215517615,NA,NA,NA,NA,NA,NA,NA,NA,"2013_Mai_25_2306","PostTest",1,13,NA,1,"Ecken","FCB",3,"BVB","Kopf",1,1,"BVB --> FCB",1,165,"FCB"
"227","E_D_03.avi",2382,0,2,2,2,NA,NA,NA,NA,NA,NA,NA,NA,2,1.17145251701,4,1.18785292544,NA,NA,NA,NA,NA,NA,NA,NA,"2013_Jun_03_1707","PostTest",1,33,NA,2,"Ecken","BVB",4,"BVB","Kopf",1,1,"BVB --> FCB",1,165,"FCB"
"228","E_D_03.avi",1646,0,2,2,2,NA,NA,NA,NA,NA,NA,NA,NA,1,6.81074717597,1,5.99043202418,NA,NA,NA,NA,NA,NA,NA,NA,"2013_Mai_25_2308","PostTest",1,4,NA,1,"Ecken","FCB",1,"BVB","Kopf",0,1,"BVB --> FCB",1,165,"FCB"
"229","E_D_03.avi",1275,0,2,2,2,NA,NA,NA,NA,NA,NA,NA,NA,1,7.38020055622,1,5.33778091908,NA,NA,NA,NA,NA,NA,NA,NA,"2013_Mai_25_2308","PostTest",1,32,NA,1,"Ecken","BVB",1,"BVB","Kopf",0,1,"BVB --> FCB",1,165,"FCB"
"230","E_D_03.avi",2282,0,2,2,2,NA,NA,NA,NA,NA,NA,NA,NA,2,5.02981300696,3,3.15180029864,NA,NA,NA,NA,NA,NA,NA,NA,"2013_Mai_25_2304","PostTest",1,51,NA,1,"Ecken","FCB",3,"BVB","Kopf",1,1,"BVB --> FCB",1,165,"FCB"
"231","E_D_03.avi",1073,0,2,2,2,NA,NA,NA,NA,NA,NA,NA,NA,1,2.4097626933,1,0.853338622646,NA,NA,NA,NA,NA,NA,NA,NA,"2013_Jun_03_1557","PostTest",1,16,NA,2,"Ecken","FCB",1,"BVB","Kopf",0,1,"BVB --> FCB",1,165,"FCB"
"232","E_D_03.avi",1689,0,2,2,2,NA,NA,NA,NA,NA,NA,NA,NA,1,1.99103014489,3,0.585739528348,NA,NA,NA,NA,NA,NA,NA,NA,"2013_Jun_03_1412","PostTest",1,24,NA,2,"Ecken","BVB",3,"BVB","Kopf",0,1,"BVB --> FCB",1,165,"FCB"
"233","E_D_03.avi",2921,0,2,2,2,NA,NA,NA,NA,NA,NA,NA,NA,1,1.48938510341,4,2.12523435241,NA,NA,NA,NA,NA,NA,NA,NA,"2013_Jun_04_1603","PostTest",1,41,NA,2,"Ecken","FCB",4,"BVB","Kopf",0,1,"BVB --> FCB",1,165,"FCB"
"234","E_D_03.avi",321,0,2,2,2,NA,NA,NA,NA,NA,NA,NA,NA,2,4.23196579454,4,6.51441929072,NA,NA,NA,NA,NA,NA,NA,NA,"2013_Mai_25_2309","PostTest",1,15,NA,1,"Ecken","FCB",4,"BVB","Kopf",1,1,"BVB --> FCB",1,165,"FCB"
"235","E_D_03.avi",1434,0,2,2,2,NA,NA,NA,NA,NA,NA,NA,NA,1,10.7101017029,2,1.355905569,NA,NA,NA,NA,NA,NA,NA,NA,"2013_May_25_2308","PostTest",1,35,NA,1,"Ecken","FCB",2,"BVB","Kopf",0,1,"BVB --> FCB",1,165,"FCB"
"236","E_D_03.avi",2600,0,2,2,2,NA,NA,NA,NA,NA,NA,NA,NA,2,2.52028784385,3,0.807187505675,NA,NA,NA,NA,NA,NA,NA,NA,"2013_Mai_25_2305","PostTest",1,57,NA,1,"Ecken","FCB",3,"BVB","Kopf",1,1,"BVB --> FCB",1,165,"FCB"
"237","E_D_03.avi",765,0,2,2,2,NA,NA,NA,NA,NA,NA,NA,NA,2,1.53960210027,5,1.60650361987,NA,NA,NA,NA,NA,NA,NA,NA,"2013_Jun_03_1001","PostTest",1,11,NA,2,"Ecken","FCB",5,"BVB","Kopf",1,1,"BVB --> FCB",1,165,"FCB"
"238","E_D_03.avi",2228,0,2,2,2,NA,NA,NA,NA,NA,NA,NA,NA,2,1.9075997089,4,0.937150112654,NA,NA,NA,NA,NA,NA,NA,NA,"2013_Jun_03_1259","PostTest",1,31,NA,2,"Ecken","FCB",4,"BVB","Kopf",1,1,"BVB --> FCB",1,165,"FCB"
"239","E_D_03.avi",2494,0,2,2,2,NA,NA,NA,NA,NA,NA,NA,NA,2,1.7163209989,5,1.54251992921,NA,NA,NA,NA,NA,NA,NA,NA,"2013_Mai_25_2303","PostTest",1,55,NA,1,"Ecken","FCB",5,"BVB","Kopf",1,1,"BVB --> FCB",1,165,"FCB"
"240","E_D_03.avi",2998,0,2,2,2,NA,NA,NA,NA,NA,NA,NA,NA,1,1.87417674593,4,1.27170380593,NA,NA,NA,NA,NA,NA,NA,NA,"2013_Jun_04_0925","PostTest",1,43,NA,2,"Ecken","FCB",4,"BVB","Kopf",0,1,"BVB --> FCB",1,165,"FCB"
"241","E_D_03.avi",1752,0,2,2,2,NA,NA,NA,NA,NA,NA,NA,NA,2,1.9286243084,4,0.421861298014,NA,NA,NA,NA,NA,NA,NA,NA,"2013_Mai_25_2306","PostTest",1,41,NA,1,"Ecken","FCB",4,"BVB","Kopf",1,1,"BVB --> FCB",1,165,"FCB"
"242","E_D_03.avi",2123,0,2,2,2,NA,NA,NA,NA,NA,NA,NA,NA,1,2.66519711304,3,2.09919026021,NA,NA,NA,NA,NA,NA,NA,NA,"2013_Mai_25_2319","PostTest",1,49,NA,1,"Ecken","FCB",3,"BVB","Kopf",0,1,"BVB --> FCB",1,165,"FCB"
"243","E_D_03.avi",2151,0,2,2,2,NA,NA,NA,NA,NA,NA,NA,NA,1,1.72368052364,4,2.02466291107,NA,NA,NA,NA,NA,NA,NA,NA,"2013_Jun_05_1759","PostTest",1,30,NA,2,"Ecken","BVB",4,"BVB","Kopf",0,1,"BVB --> FCB",1,165,"FCB"
"244","E_D_03.avi",904,0,2,2,2,NA,NA,NA,NA,NA,NA,NA,NA,1,5.44527139622,3,1.28609753474,NA,NA,NA,NA,NA,NA,NA,NA,"2013_Mai_25_2307","PostTest",1,25,NA,1,"Ecken","BVB",3,"BVB","Kopf",0,1,"BVB --> FCB",1,165,"FCB"
"245","E_D_03.avi",2759,0,2,2,2,NA,NA,NA,NA,NA,NA,NA,NA,2,1.40629800715,4,2.19166625926,NA,NA,NA,NA,NA,NA,NA,NA,"2013_Mai_25_2308","PostTest",1,6,NA,1,"Ecken","FCB",4,"BVB","Kopf",1,1,"BVB --> FCB",1,165,"FCB"
"246","E_D_03.avi",1169,0,2,2,2,NA,NA,NA,NA,NA,NA,NA,NA,1,3.05781572798,3,1.75692050247,NA,NA,NA,NA,NA,NA,NA,NA,"2013_Mai_25_2308","PostTest",1,30,NA,1,"Ecken","BVB",3,"BVB","Kopf",0,1,"BVB --> FCB",1,165,"FCB"
"247","E_D_03.avi",3024,0,2,2,2,NA,NA,NA,NA,NA,NA,NA,NA,1,3.67462680313,2,1.23587467122,NA,NA,NA,NA,NA,NA,NA,NA,"2013_Mai_25_2304","PostTest",1,9,NA,1,"Ecken","FCB",2,"BVB","Kopf",0,1,"BVB --> FCB",1,165,"FCB"
"248","E_D_03.avi",2074,0,2,2,2,NA,NA,NA,NA,NA,NA,NA,NA,2,1.03712706503,2,0.27540092386,NA,NA,NA,NA,NA,NA,NA,NA,"2013_Jun_14_1400","PostTest",1,29,NA,2,"Ecken","BVB",2,"BVB","Kopf",1,1,"BVB --> FCB",1,165,"FCB"
"249","E_D_03.avi",1843,0,2,2,2,NA,NA,NA,NA,NA,NA,NA,NA,2,2.51001482032,2,2.45983972823,NA,NA,NA,NA,NA,NA,NA,NA,"2013_Jun_11_1106","PostTest",1,26,NA,2,"Ecken","FCB",2,"BVB","Kopf",1,1,"BVB --> FCB",1,165,"FCB"
"250","E_D_03.avi",1063,0,2,2,2,NA,NA,NA,NA,NA,NA,NA,NA,2,2.49257684985,3,2.00759426128,NA,NA,NA,NA,NA,NA,NA,NA,"2013_Mai_25_2308","PostTest",1,29,NA,1,"Ecken","BVB",3,"BVB","Kopf",1,1,"BVB --> FCB",1,165,"FCB"
"251","E_D_03.avi",2613,0,2,2,2,NA,NA,NA,NA,NA,NA,NA,NA,2,2.99548378355,1,0.585578614042,NA,NA,NA,NA,NA,NA,NA,NA,"2013_Jun_03_1100","PostTest",1,36,NA,2,"Ecken","BVB",1,"BVB","Kopf",1,1,"BVB --> FCB",1,165,"FCB"
"252","E_D_03.avi",2229,0,2,2,2,NA,NA,NA,NA,NA,NA,NA,NA,2,3.64125664016,1,2.20476820378,NA,NA,NA,NA,NA,NA,NA,NA,"2013_Mai_25_2305","PostTest",1,50,NA,1,"Ecken","FCB",1,"BVB","Kopf",1,1,"BVB --> FCB",1,165,"FCB"
"253","E_D_03.avi",639,0,2,2,2,NA,NA,NA,NA,NA,NA,NA,NA,1,2.43437417237,3,7.91972325058,NA,NA,NA,NA,NA,NA,NA,NA,"2013_Mai_25_2304","PostTest",1,20,NA,1,"Ecken","FCB",3,"BVB","Kopf",0,1,"BVB --> FCB",1,165,"FCB"
"254","E_D_03.avi",3614,0,2,2,2,NA,NA,NA,NA,NA,NA,NA,NA,2,2.39287870386,5,0.304941270469,NA,NA,NA,NA,NA,NA,NA,NA,"2013_Jun_03_1210","PostTest",1,52,NA,2,"Ecken","BVB",5,"BVB","Kopf",1,1,"BVB --> FCB",1,165,"FCB"
"255","E_D_03.avi",3383,0,2,2,2,NA,NA,NA,NA,NA,NA,NA,NA,1,3.66476996378,1,1.10444232437,NA,NA,NA,NA,NA,NA,NA,NA,"2013_Jun_03_0917","PostTest",1,49,NA,2,"Ecken","FCB",1,"BVB","Kopf",0,1,"BVB --> FCB",1,165,"FCB"
"256","E_D_03.avi",619,0,2,2,2,NA,NA,NA,NA,NA,NA,NA,NA,2,3.36357665569,1,0.317480294283,NA,NA,NA,NA,NA,NA,NA,NA,"2013_Jun_03_0804","PostTest",1,9,NA,2,"Ecken","FCB",1,"BVB","Kopf",1,1,"BVB --> FCB",1,165,"FCB"
"257","E_D_03.avi",2536,0,2,2,2,NA,NA,NA,NA,NA,NA,NA,NA,1,3.19634115509,3,0.652577632073,NA,NA,NA,NA,NA,NA,NA,NA,"2013_Jun_03_1558","PostTest",1,35,NA,2,"Ecken","FCB",3,"BVB","Kopf",0,1,"BVB --> FCB",1,165,"FCB"
"258","E_D_03.avi",3152,0,2,2,2,NA,NA,NA,NA,NA,NA,NA,NA,1,3.51425949387,4,1.17127707572,NA,NA,NA,NA,NA,NA,NA,NA,"2013_Jun_05_1807","PostTest",1,53,NA,2,"Ecken","FCB",4,"BVB","Kopf",0,1,"BVB --> FCB",1,165,"FCB"
"259","E_D_03.avi",2388,0,2,2,2,NA,NA,NA,NA,NA,NA,NA,NA,1,9.01836294836,3,1.2070992263,NA,NA,NA,NA,NA,NA,NA,NA,"2013_Mai_25_2304","PostTest",1,53,NA,1,"Ecken","FCB",3,"BVB","Kopf",0,1,"BVB --> FCB",1,165,"FCB"
"260","E_D_03.avi",3,0,2,2,2,NA,NA,NA,NA,NA,NA,NA,NA,2,0.970708008979,2,0.953482076633,NA,NA,NA,NA,NA,NA,NA,NA,"2013_Jun_03_1501","PostTest",1,1,NA,2,"Ecken","BVB",2,"BVB","Kopf",1,1,"BVB --> FCB",1,165,"FCB"
"261","E_D_03.avi",1304,0,2,2,2,NA,NA,NA,NA,NA,NA,NA,NA,1,0.753089289281,1,0.318024776892,NA,NA,NA,NA,NA,NA,NA,NA,"2013_Jun_03_1134","PostTest",1,19,NA,2,"Ecken","FCB",1,"BVB","Kopf",0,1,"BVB --> FCB",1,165,"FCB"
"262","E_D_03.avi",465,0,2,2,2,NA,NA,NA,NA,NA,NA,NA,NA,1,0.702874527349,4,1.5227158759,NA,NA,NA,NA,NA,NA,NA,NA,"2013_Jun_05_1650","PostTest",1,7,NA,2,"Ecken","BVB",4,"BVB","Kopf",0,1,"BVB --> FCB",1,165,"FCB"
"263","E_D_03.avi",3537,0,2,2,2,NA,NA,NA,NA,NA,NA,NA,NA,1,2.56022092193,3,2.57730605426,NA,NA,NA,NA,NA,NA,NA,NA,"2013_Jun_05_1605","PostTest",1,51,NA,2,"Ecken","FCB",3,"BVB","Kopf",0,1,"BVB --> FCB",1,165,"FCB"
"264","E_D_03.avi",996,0,2,2,2,NA,NA,NA,NA,NA,NA,NA,NA,1,2.12510975557,3,1.18818676675,NA,NA,NA,NA,NA,NA,NA,NA,"2013_Jun_03_1431","PostTest",1,14,NA,2,"Ecken","FCB",3,"BVB","Kopf",0,1,"BVB --> FCB",1,165,"FCB"
"265","E_D_03.avi",692,0,2,2,2,NA,NA,NA,NA,NA,NA,NA,NA,1,8.8528793464,3,6.94867085062,NA,NA,NA,NA,NA,NA,NA,NA,"2013_Mai_25_2304","PostTest",1,21,NA,1,"Ecken","FCB",3,"BVB","Kopf",0,1,"BVB --> FCB",1,165,"FCB"
"266","E_D_03.avi",1858,0,2,2,2,NA,NA,NA,NA,NA,NA,NA,NA,2,2.33057357849,2,1.54230104664,NA,NA,NA,NA,NA,NA,NA,NA,"2013_Mai_25_2305","PostTest",1,43,NA,1,"Ecken","FCB",2,"BVB","Kopf",1,1,"BVB --> FCB",1,165,"FCB"
"267","E_D_03.avi",533,0,2,2,2,NA,NA,NA,NA,NA,NA,NA,NA,1,0.748624196651,1,0.46643637669,NA,NA,NA,NA,NA,NA,NA,NA,"2013_Mai_25_2304","PostTest",1,19,NA,1,"Ecken","FCB",1,"BVB","Kopf",0,1,"BVB --> FCB",1,165,"FCB"
"268","E_D_03.avi",1150,0,2,2,2,NA,NA,NA,NA,NA,NA,NA,NA,1,4.04973593013,3,5.18756629683,NA,NA,NA,NA,NA,NA,NA,NA,"2013_Jun_04_1337","PostTest",1,17,NA,2,"Ecken","FCB",3,"BVB","Kopf",0,1,"BVB --> FCB",1,165,"FCB"
"269","E_D_03.avi",2653,0,2,2,2,NA,NA,NA,NA,NA,NA,NA,NA,2,2.0885463795,2,1.88364303284,NA,NA,NA,NA,NA,NA,NA,NA,"2013_Mai_25_2306","PostTest",1,58,NA,1,"Ecken","BVB",2,"BVB","Kopf",1,1,"BVB --> FCB",1,165,"FCB"
"270","E_D_03.avi",311,0,2,2,2,NA,NA,NA,NA,NA,NA,NA,NA,2,1.50615511189,3,0.334559839309,NA,NA,NA,NA,NA,NA,NA,NA,"2013_Jun_03_1005","PostTest",1,5,NA,2,"Ecken","BVB",3,"BVB","Kopf",1,1,"BVB --> FCB",1,165,"FCB"
"271","E_D_03.avi",2305,0,2,2,2,NA,NA,NA,NA,NA,NA,NA,NA,1,2.34286480544,3,0.90335084487,NA,NA,NA,NA,NA,NA,NA,NA,"2013_Jun_04_1959","PostTest",1,32,NA,2,"Ecken","BVB",3,"BVB","Kopf",0,1,"BVB --> FCB",1,165,"FCB"
"272","E_D_03.avi",3768,0,2,2,2,NA,NA,NA,NA,NA,NA,NA,NA,2,2.15926996308,3,0.367575208581,NA,NA,NA,NA,NA,NA,NA,NA,"2013_Jun_03_1202","PostTest",1,55,NA,2,"Ecken","FCB",3,"BVB","Kopf",1,1,"BVB --> FCB",1,165,"FCB"
"273","E_D_03.avi",1612,0,2,2,2,NA,NA,NA,NA,NA,NA,NA,NA,2,2.87817027024,1,0.65253265429,NA,NA,NA,NA,NA,NA,NA,NA,"2013_Jun_05_1717","PostTest",1,23,NA,2,"Ecken","BVB",1,"BVB","Kopf",1,1,"BVB --> FCB",1,165,"FCB"
"274","E_D_03.avi",4153,0,2,2,2,NA,NA,NA,NA,NA,NA,NA,NA,2,3.27974477203,2,1.15432184817,NA,NA,NA,NA,NA,NA,NA,NA,"2013_Jun_03_0930","PostTest",1,60,NA,2,"Ecken","BVB",2,"BVB","Kopf",1,1,"BVB --> FCB",1,165,"FCB"
"275","E_D_03.avi",1381,0,2,2,2,NA,NA,NA,NA,NA,NA,NA,NA,2,14.8768620034,3,11.9145975257,NA,NA,NA,NA,NA,NA,NA,NA,"2013_Mai_25_2308","PostTest",1,34,NA,1,"Ecken","BVB",3,"BVB","Kopf",1,1,"BVB --> FCB",1,165,"FCB"
"276","E_D_03.avi",2767,0,2,2,2,NA,NA,NA,NA,NA,NA,NA,NA,2,1.0206610058,4,1.03742542697,NA,NA,NA,NA,NA,NA,NA,NA,"2013_Jun_03_0954","PostTest",1,39,NA,2,"Ecken","FCB",4,"BVB","Kopf",1,1,"BVB --> FCB",1,165,"FCB"
"277","E_D_03.avi",1766,0,2,2,2,NA,NA,NA,NA,NA,NA,NA,NA,2,2.5938729643,2,1.13780550321,NA,NA,NA,NA,NA,NA,NA,NA,"2013_Jun_03_1121","PostTest",1,25,NA,2,"Ecken","BVB",2,"BVB","Kopf",1,1,"BVB --> FCB",1,165,"FCB"
"278","E_D_03.avi",162,0,2,2,2,NA,NA,NA,NA,NA,NA,NA,NA,2,1.436502684,2,0.868373215032,NA,NA,NA,NA,NA,NA,NA,NA,"2013_Mai_25_2305","PostTest",1,12,NA,1,"Ecken","FCB",2,"BVB","Kopf",1,1,"BVB --> FCB",1,165,"FCB"
"279","E_D_03.avi",688,0,2,2,2,NA,NA,NA,NA,NA,NA,NA,NA,1,2.77791507021,3,0.267439297453,NA,NA,NA,NA,NA,NA,NA,NA,"2013_Jun_05_0901","PostTest",1,10,NA,2,"Ecken","FCB",3,"BVB","Kopf",0,1,"BVB --> FCB",1,165,"FCB"
"280","E_D_03.avi",1920,0,2,2,2,NA,NA,NA,NA,NA,NA,NA,NA,2,4.16686198944,5,1.53926658276,NA,NA,NA,NA,NA,NA,NA,NA,"2013_Jun_05_1419","PostTest",1,15,NA,2,"Ecken","FCB",5,"BVB","Kopf",1,1,"BVB --> FCB",1,165,"FCB"
"281","E_D_03.avi",919,0,2,2,2,NA,NA,NA,NA,NA,NA,NA,NA,2,1.20475954346,4,2.97875595921,NA,NA,NA,NA,NA,NA,NA,NA,"2013_Jun_03_0857","PostTest",1,13,NA,2,"Ecken","FCB",4,"BVB","Kopf",1,1,"BVB --> FCB",1,165,"FCB"
"282","E_D_03.avi",1535,0,2,2,2,NA,NA,NA,NA,NA,NA,NA,NA,1,2.22575830168,4,1.45575429279,NA,NA,NA,NA,NA,NA,NA,NA,"2013_Jun_04_1322","PostTest",1,22,NA,2,"Ecken","FCB",4,"BVB","Kopf",0,1,"BVB --> FCB",1,165,"FCB"
"283","E_D_03.avi",427,0,2,2,2,NA,NA,NA,NA,NA,NA,NA,NA,1,9.23685580151,3,1.81264490319,NA,NA,NA,NA,NA,NA,NA,NA,"2013_Mai_25_2305","PostTest",1,17,NA,1,"Ecken","FCB",3,"BVB","Kopf",0,1,"BVB --> FCB",1,165,"FCB"
"284","E_D_03.avi",56,0,2,2,2,NA,NA,NA,NA,NA,NA,NA,NA,2,0.935412182275,2,2.03765730002,NA,NA,NA,NA,NA,NA,NA,NA,"2013_Mai_25_2304","PostTest",1,10,NA,1,"Ecken","FCB",2,"BVB","Kopf",1,1,"BVB --> FCB",1,165,"FCB"
"285","E_D_04.avi",1700,0,3,3,3,NA,NA,NA,NA,NA,NA,NA,NA,1,1.66611258976,2,0.607208491774,NA,NA,NA,NA,NA,NA,NA,NA,"2013_Mai_25_2307","PostTest",1,40,NA,1,"Ecken","BVB",2,"BVB","Kopf",0,0,"BVB --> FCB",0,229,"FCB"
"286","E_D_04.avi",2548,0,3,3,3,NA,NA,NA,NA,NA,NA,NA,NA,2,2.19628639953,4,1.55916520116,NA,NA,NA,NA,NA,NA,NA,NA,"2013_Mai_25_2304","PostTest",1,56,NA,1,"Ecken","FCB",4,"BVB","Kopf",1,0,"BVB --> FCB",0,229,"FCB"
"287","E_D_04.avi",2177,0,3,3,3,NA,NA,NA,NA,NA,NA,NA,NA,2,3.4974229965,4,1.52276197114,NA,NA,NA,NA,NA,NA,NA,NA,"2013_Mai_25_2308","PostTest",1,5,NA,1,"Ecken","BVB",4,"BVB","Kopf",1,0,"BVB --> FCB",0,229,"FCB"
"288","E_D_04.avi",3025,0,3,3,3,NA,NA,NA,NA,NA,NA,NA,NA,2,9.30317372739,2,1.15232773998,NA,NA,NA,NA,NA,NA,NA,NA,"2013_Mai_25_2304","PostTest",1,9,NA,1,"Ecken","FCB",2,"BVB","Kopf",1,0,"BVB --> FCB",0,229,"FCB"
"289","E_D_04.avi",4232,0,4,4,4,NA,NA,NA,NA,NA,NA,NA,NA,1,1.5559064071,4,1.10440181643,NA,NA,NA,NA,NA,NA,NA,NA,"2013_Jun_04_1926","PostTest",1,61,NA,2,"Ecken","FCB",4,"BVB","Kopf",0,0,"BVB --> FCB",0,229,"FCB"
"290","E_D_04.avi",2071,0,3,3,3,NA,NA,NA,NA,NA,NA,NA,NA,2,2.65111219615,3,1.36714128202,NA,NA,NA,NA,NA,NA,NA,NA,"2013_Mai_25_2318","PostTest",1,48,NA,1,"Ecken","FCB",3,"BVB","Kopf",1,0,"BVB --> FCB",0,229,"FCB"
"291","E_D_04.avi",3231,0,4,4,4,NA,NA,NA,NA,NA,NA,NA,NA,1,1.69023297654,4,0.719426631038,NA,NA,NA,NA,NA,NA,NA,NA,"2013_Jun_05_1401","PostTest",1,47,NA,2,"Ecken","FCB",4,"BVB","Kopf",0,0,"BVB --> FCB",0,229,"FCB"
"292","E_D_04.avi",236,0,4,4,4,NA,NA,NA,NA,NA,NA,NA,NA,2,8.55117591761,1,0.870170370815,NA,NA,NA,NA,NA,NA,NA,NA,"2013_Jun_04_1612","PostTest",1,4,NA,2,"Ecken","FCB",1,"BVB","Kopf",1,0,"BVB --> FCB",0,229,"FCB"
"293","E_D_04.avi",3693,0,4,4,4,NA,NA,NA,NA,NA,NA,NA,NA,1,1.84082530042,1,1.05439490215,NA,NA,NA,NA,NA,NA,NA,NA,"2013_Jun_03_1359","PostTest",1,54,NA,2,"Ecken","BVB",1,"BVB","Kopf",0,0,"BVB --> FCB",0,229,"FCB"
"294","E_D_04.avi",3077,0,4,4,4,NA,NA,NA,NA,NA,NA,NA,NA,2,6.64349854521,2,2.66047109339,NA,NA,NA,NA,NA,NA,NA,NA,"2013_Jun_03_0902","PostTest",1,44,NA,2,"Ecken","BVB",2,"BVB","Kopf",1,0,"BVB --> FCB",0,229,"FCB"
"295","E_D_04.avi",2866,0,3,3,3,NA,NA,NA,NA,NA,NA,NA,NA,1,1.82073364073,4,0.901914349449,NA,NA,NA,NA,NA,NA,NA,NA,"2013_Mai_25_2307","PostTest",1,61,NA,1,"Ecken","FCB",4,"BVB","Kopf",0,0,"BVB --> FCB",0,229,"FCB"
"296","E_D_04.avi",1999,0,4,4,4,NA,NA,NA,NA,NA,NA,NA,NA,1,2.51020199495,4,3.31326858581,NA,NA,NA,NA,NA,NA,NA,NA,"2013_Jun_05_1107","PostTest",1,28,NA,2,"Ecken","BVB",4,"BVB","Kopf",0,0,"BVB --> FCB",0,229,"FCB"
"297","E_D_04.avi",4078,0,4,4,4,NA,NA,NA,NA,NA,NA,NA,NA,2,2.24226961807,4,1.15496801968,NA,NA,NA,NA,NA,NA,NA,NA,"2013_Jun_03_0904","PostTest",1,59,NA,2,"Ecken","FCB",4,"BVB","Kopf",1,0,"BVB --> FCB",0,229,"FCB"
"298","E_D_04.avi",159,0,4,4,4,NA,NA,NA,NA,NA,NA,NA,NA,2,2.6273213495,3,1.77364357761,NA,NA,NA,NA,NA,NA,NA,NA,"2013_Jun_04_2052","PostTest",1,3,NA,2,"Ecken","BVB",3,"BVB","Kopf",1,0,"BVB --> FCB",0,229,"FCB"
"299","E_D_04.avi",905,0,3,3,3,NA,NA,NA,NA,NA,NA,NA,NA,2,4.00877988683,4,2.48849085568,NA,NA,NA,NA,NA,NA,NA,NA,"2013_Mai_25_2307","PostTest",1,25,NA,1,"Ecken","BVB",4,"BVB","Kopf",1,0,"BVB --> FCB",0,229,"FCB"
"300","E_D_04.avi",5,0,4,4,4,NA,NA,NA,NA,NA,NA,NA,NA,1,2.57708731138,1,1.65658428655,NA,NA,NA,NA,NA,NA,NA,NA,"2013_Jun_03_1501","PostTest",1,1,NA,2,"Ecken","BVB",1,"BVB","Kopf",0,0,"BVB --> FCB",0,229,"FCB"
"301","E_D_04.avi",544,0,4,4,4,NA,NA,NA,NA,NA,NA,NA,NA,1,1.48920435418,5,1.87430804753,NA,NA,NA,NA,NA,NA,NA,NA,"2013_Jun_06_1539","PostTest",1,8,NA,2,"Ecken","FCB",5,"BVB","Kopf",0,0,"BVB --> FCB",0,229,"FCB"
"302","E_D_04.avi",3308,0,4,4,4,NA,NA,NA,NA,NA,NA,NA,NA,2,2.89579792963,2,0.601569473215,NA,NA,NA,NA,NA,NA,NA,NA,"2013_Jun_04_1603","PostTest",1,48,NA,2,"Ecken","FCB",2,"BVB","Kopf",1,0,"BVB --> FCB",0,229,"FCB"
"303","E_D_04.avi",3924,0,4,4,4,NA,NA,NA,NA,NA,NA,NA,NA,2,1.43918347164,4,0.367882789572,NA,NA,NA,NA,NA,NA,NA,NA,"2013_Jun_03_1355","PostTest",1,57,NA,2,"Ecken","FCB",4,"BVB","Kopf",1,0,"BVB --> FCB",0,229,"FCB"
"304","E_D_04.avi",1806,0,3,3,3,NA,NA,NA,NA,NA,NA,NA,NA,2,15.6259952033,2,3.11845304361,NA,NA,NA,NA,NA,NA,NA,NA,"2013_Mai_25_2304","PostTest",1,42,NA,1,"Ecken","BVB",2,"BVB","Kopf",1,0,"BVB --> FCB",0,229,"FCB"
"305","E_D_04.avi",1691,0,4,4,4,NA,NA,NA,NA,NA,NA,NA,NA,1,2.84490822158,4,0.167126548207,NA,NA,NA,NA,NA,NA,NA,NA,"2013_Jun_03_1412","PostTest",1,24,NA,2,"Ecken","BVB",4,"BVB","Kopf",0,0,"BVB --> FCB",0,229,"FCB"
"306","E_D_04.avi",587,0,3,3,3,NA,NA,NA,NA,NA,NA,NA,NA,1,2.1747423206,4,2.00802196927,NA,NA,NA,NA,NA,NA,NA,NA,"2013_Mai_25_2308","PostTest",1,2,NA,1,"Ecken","FCB",4,"BVB","Kopf",0,0,"BVB --> FCB",0,229,"FCB"
"307","E_D_04.avi",1329,0,3,3,3,NA,NA,NA,NA,NA,NA,NA,NA,1,1.30462363233,3,1.20510400065,NA,NA,NA,NA,NA,NA,NA,NA,"2013_Mai_25_2308","PostTest",1,33,NA,1,"Ecken","BVB",3,"BVB","Kopf",0,0,"BVB --> FCB",0,229,"FCB"
"308","E_D_04.avi",958,0,3,3,3,NA,NA,NA,NA,NA,NA,NA,NA,2,6.13013385779,2,3.72491392062,NA,NA,NA,NA,NA,NA,NA,NA,"2013_Mai_25_2305","PostTest",1,26,NA,1,"Ecken","FCB",2,"BVB","Kopf",1,0,"BVB --> FCB",0,229,"FCB"
"309","E_D_04.avi",2495,0,3,3,3,NA,NA,NA,NA,NA,NA,NA,NA,2,2.5943546596,2,1.69890146653,NA,NA,NA,NA,NA,NA,NA,NA,"2013_Mai_25_2303","PostTest",1,55,NA,1,"Ecken","FCB",2,"BVB","Kopf",1,0,"BVB --> FCB",0,229,"FCB"
"310","E_D_04.avi",2442,0,3,3,3,NA,NA,NA,NA,NA,NA,NA,NA,1,3.82590049853,4,3.52495833968,NA,NA,NA,NA,NA,NA,NA,NA,"2013_Mai_25_2303","PostTest",1,54,NA,1,"Ecken","BVB",4,"BVB","Kopf",0,0,"BVB --> FCB",0,229,"FCB"
"311","E_D_04.avi",2760,0,3,3,3,NA,NA,NA,NA,NA,NA,NA,NA,1,2.69406949766,1,1.52292512037,NA,NA,NA,NA,NA,NA,NA,NA,"2013_Mai_25_2308","PostTest",1,6,NA,1,"Ecken","FCB",1,"BVB","Kopf",0,0,"BVB --> FCB",0,229,"FCB"
"312","E_D_04.avi",375,0,3,3,3,NA,NA,NA,NA,NA,NA,NA,NA,1,1.66606090998,3,0.949696399961,NA,NA,NA,NA,NA,NA,NA,NA,"2013_Mai_25_2305","PostTest",1,16,NA,1,"Ecken","FCB",3,"BVB","Kopf",0,0,"BVB --> FCB",0,229,"FCB"
"313","E_D_04.avi",534,0,3,3,3,NA,NA,NA,NA,NA,NA,NA,NA,1,0.533193743898,1,0.383107908966,NA,NA,NA,NA,NA,NA,NA,NA,"2013_Mai_25_2304","PostTest",1,19,NA,1,"Ecken","FCB",1,"BVB","Kopf",0,0,"BVB --> FCB",0,229,"FCB"
"314","E_D_04.avi",2654,0,3,3,3,NA,NA,NA,NA,NA,NA,NA,NA,2,5.41193196342,3,1.96952566597,NA,NA,NA,NA,NA,NA,NA,NA,"2013_Mai_25_2306","PostTest",1,58,NA,1,"Ecken","BVB",3,"BVB","Kopf",1,0,"BVB --> FCB",0,229,"FCB"
"315","E_D_04.avi",1912,0,3,3,3,NA,NA,NA,NA,NA,NA,NA,NA,2,1.8106996839,3,1.44178938943,NA,NA,NA,NA,NA,NA,NA,NA,"2013_Mai_25_2305","PostTest",1,44,NA,1,"Ecken","BVB",3,"BVB","Kopf",1,0,"BVB --> FCB",0,229,"FCB"
"316","E_D_04.avi",1845,0,4,4,4,NA,NA,NA,NA,NA,NA,NA,NA,1,3.07917598466,2,2.86121029349,NA,NA,NA,NA,NA,NA,NA,NA,"2013_Jun_11_1106","PostTest",1,26,NA,2,"Ecken","FCB",2,"BVB","Kopf",0,0,"BVB --> FCB",0,229,"FCB"
"317","E_D_04.avi",2461,0,4,4,4,NA,NA,NA,NA,NA,NA,NA,NA,1,2.59366344047,5,2.71063277595,NA,NA,NA,NA,NA,NA,NA,NA,"2013_Jun_04_1339","PostTest",1,34,NA,2,"Ecken","BVB",5,"BVB","Kopf",0,0,"BVB --> FCB",0,229,"FCB"
"318","E_D_04.avi",3847,0,4,4,4,NA,NA,NA,NA,NA,NA,NA,NA,2,4.81948878978,3,3.12921893704,NA,NA,NA,NA,NA,NA,NA,NA,"2013_Jun_03_0805","PostTest",1,56,NA,2,"Ecken","FCB",3,"BVB","Kopf",1,0,"BVB --> FCB",0,229,"FCB"
"319","E_D_04.avi",998,0,4,4,4,NA,NA,NA,NA,NA,NA,NA,NA,1,2.52698988279,2,1.52270693622,NA,NA,NA,NA,NA,NA,NA,NA,"2013_Jun_03_1431","PostTest",1,14,NA,2,"Ecken","FCB",2,"BVB","Kopf",0,0,"BVB --> FCB",0,229,"FCB"
"320","E_D_04.avi",2972,0,3,3,3,NA,NA,NA,NA,NA,NA,NA,NA,1,2.17147374876,5,2.0043740196,NA,NA,NA,NA,NA,NA,NA,NA,"2013_Mai_25_2304","PostTest",1,8,NA,1,"Ecken","FCB",5,"BVB","Kopf",0,0,"BVB --> FCB",0,229,"FCB"
"321","E_D_04.avi",2692,0,4,4,4,NA,NA,NA,NA,NA,NA,NA,NA,1,1.77390981256,4,1.53946744628,NA,NA,NA,NA,NA,NA,NA,NA,"2013_Jun_03_1017","PostTest",1,38,NA,2,"Ecken","BVB",4,"BVB","Kopf",0,0,"BVB --> FCB",0,229,"FCB"
"322","E_D_04.avi",2769,0,4,4,4,NA,NA,NA,NA,NA,NA,NA,NA,1,2.72756844795,3,0.368208808661,NA,NA,NA,NA,NA,NA,NA,NA,"2013_Jun_03_0954","PostTest",1,39,NA,2,"Ecken","FCB",3,"BVB","Kopf",0,0,"BVB --> FCB",0,229,"FCB"
"323","E_D_04.avi",621,0,4,4,4,NA,NA,NA,NA,NA,NA,NA,NA,1,2.04141029097,1,0.250884958843,NA,NA,NA,NA,NA,NA,NA,NA,"2013_Jun_03_0804","PostTest",1,9,NA,2,"Ecken","FCB",1,"BVB","Kopf",0,0,"BVB --> FCB",0,229,"FCB"
"324","E_D_04.avi",1594,0,3,3,3,NA,NA,NA,NA,NA,NA,NA,NA,1,2.16482555744,2,1.70455274344,NA,NA,NA,NA,NA,NA,NA,NA,"2013_Mai_25_2311","PostTest",1,39,NA,1,"Ecken","FCB",2,"BVB","Kopf",0,0,"BVB --> FCB",0,229,"FCB"
"325","E_D_04.avi",313,0,4,4,4,NA,NA,NA,NA,NA,NA,NA,NA,2,1.42247548222,3,0.719181069102,NA,NA,NA,NA,NA,NA,NA,NA,"2013_Jun_03_1005","PostTest",1,5,NA,2,"Ecken","BVB",3,"BVB","Kopf",1,0,"BVB --> FCB",0,229,"FCB"
"326","E_D_04.avi",4,0,3,3,3,NA,NA,NA,NA,NA,NA,NA,NA,2,3.66457384947,1,0.719781983464,NA,NA,NA,NA,NA,NA,NA,NA,"2013_Mai_25_2309","PostTest",1,1,NA,1,"Ecken","BVB",1,"BVB","Kopf",1,0,"BVB --> FCB",0,229,"FCB"
"327","E_D_04.avi",844,0,4,4,4,NA,NA,NA,NA,NA,NA,NA,NA,2,1.30530891496,2,0.183972264631,NA,NA,NA,NA,NA,NA,NA,NA,"2013_Jun_03_1458","PostTest",1,12,NA,2,"Ecken","FCB",2,"BVB","Kopf",1,0,"BVB --> FCB",0,229,"FCB"
"328","E_D_04.avi",1170,0,3,3,3,NA,NA,NA,NA,NA,NA,NA,NA,2,2.0582199693,3,1.97435204754,NA,NA,NA,NA,NA,NA,NA,NA,"2013_Mai_25_2308","PostTest",1,30,NA,1,"Ecken","BVB",3,"BVB","Kopf",1,0,"BVB --> FCB",0,229,"FCB"
"329","E_D_04.avi",1460,0,4,4,4,NA,NA,NA,NA,NA,NA,NA,NA,2,3.16268101113,2,2.46002802032,NA,NA,NA,NA,NA,NA,NA,NA,"2013_Jun_04_1337","PostTest",1,21,NA,2,"Ecken","FCB",2,"BVB","Kopf",1,0,"BVB --> FCB",0,229,"FCB"
"330","E_D_04.avi",2846,0,4,4,4,NA,NA,NA,NA,NA,NA,NA,NA,2,1.99120139571,2,0.753113873411,NA,NA,NA,NA,NA,NA,NA,NA,"2013_Jun_03_1239","PostTest",1,40,NA,2,"Ecken","BVB",2,"BVB","Kopf",1,0,"BVB --> FCB",0,229,"FCB"
"331","E_D_04.avi",1435,0,3,3,3,NA,NA,NA,NA,NA,NA,NA,NA,2,7.59674288213,4,4.98720088726,NA,NA,NA,NA,NA,NA,NA,NA,"2013_May_25_2308","PostTest",1,35,NA,1,"Ecken","FCB",4,"BVB","Kopf",1,0,"BVB --> FCB",0,229,"FCB"
"332","E_D_04.avi",767,0,4,4,4,NA,NA,NA,NA,NA,NA,NA,NA,1,3.0957252947,4,4.30075638105,NA,NA,NA,NA,NA,NA,NA,NA,"2013_Jun_03_1001","PostTest",1,11,NA,2,"Ecken","FCB",4,"BVB","Kopf",0,0,"BVB --> FCB",0,229,"FCB"
"333","E_D_04.avi",3462,0,4,4,4,NA,NA,NA,NA,NA,NA,NA,NA,1,2.88068707056,3,2.59137013224,NA,NA,NA,NA,NA,NA,NA,NA,"2013_Jun_04_1159","PostTest",1,50,NA,2,"Ecken","FCB",3,"BVB","Kopf",0,0,"BVB --> FCB",0,229,"FCB"
"334","E_D_04.avi",3000,0,4,4,4,NA,NA,NA,NA,NA,NA,NA,NA,1,1.97469371107,4,1.10419257196,NA,NA,NA,NA,NA,NA,NA,NA,"2013_Jun_04_0925","PostTest",1,43,NA,2,"Ecken","FCB",4,"BVB","Kopf",0,0,"BVB --> FCB",0,229,"FCB"
"335","E_D_04.avi",2230,0,3,3,3,NA,NA,NA,NA,NA,NA,NA,NA,1,2.10458172757,1,0.801626743064,NA,NA,NA,NA,NA,NA,NA,NA,"2013_Mai_25_2305","PostTest",1,50,NA,1,"Ecken","FCB",1,"BVB","Kopf",0,0,"BVB --> FCB",0,229,"FCB"
"336","E_D_04.avi",110,0,3,3,3,NA,NA,NA,NA,NA,NA,NA,NA,1,3.25737684538,3,2.95610894681,NA,NA,NA,NA,NA,NA,NA,NA,"2013_Mai_25_2305","PostTest",1,11,NA,1,"Ecken","FCB",3,"BVB","Kopf",0,0,"BVB --> FCB",0,229,"FCB"
"337","E_D_04.avi",852,0,3,3,3,NA,NA,NA,NA,NA,NA,NA,NA,1,4.99430709769,1,1.55324992422,NA,NA,NA,NA,NA,NA,NA,NA,"2013_Mai_25_2307","PostTest",1,24,NA,1,"Ecken","BVB",1,"BVB","Kopf",0,0,"BVB --> FCB",0,229,"FCB"
"338","E_D_04.avi",481,0,3,3,3,NA,NA,NA,NA,NA,NA,NA,NA,1,8.76384596366,2,1.29941403167,NA,NA,NA,NA,NA,NA,NA,NA,"2013_Mai_25_2304","PostTest",1,18,NA,1,"Ecken","FCB",2,"BVB","Kopf",0,0,"BVB --> FCB",0,229,"FCB"
"339","E_D_04.avi",1647,0,3,3,3,NA,NA,NA,NA,NA,NA,NA,NA,1,4.40114707316,5,2.57775974321,NA,NA,NA,NA,NA,NA,NA,NA,"2013_Mai_25_2308","PostTest",1,4,NA,1,"Ecken","FCB",5,"BVB","Kopf",0,0,"BVB --> FCB",0,229,"FCB"
"340","E_D_04.avi",82,0,4,4,4,NA,NA,NA,NA,NA,NA,NA,NA,2,2.1420627482,2,2.6104169664,NA,NA,NA,NA,NA,NA,NA,NA,"2013_Jun_03_1707","PostTest",1,2,NA,2,"Ecken","FCB",2,"BVB","Kopf",1,0,"BVB --> FCB",0,229,"FCB"
"341","E_D_04.avi",1965,0,3,3,3,NA,NA,NA,NA,NA,NA,NA,NA,2,7.64986695236,3,1.95434782912,NA,NA,NA,NA,NA,NA,NA,NA,"2013_Mai_25_2307","PostTest",1,45,NA,1,"Ecken","FCB",3,"BVB","Kopf",1,0,"BVB --> FCB",0,229,"FCB"
"342","E_D_04.avi",1541,0,3,3,3,NA,NA,NA,NA,NA,NA,NA,NA,1,4.56931565325,4,1.69293834831,NA,NA,NA,NA,NA,NA,NA,NA,"2013_Mai_25_2308","PostTest",1,38,NA,1,"Ecken","BVB",4,"BVB","Kopf",0,0,"BVB --> FCB",0,229,"FCB"
"343","E_D_04.avi",2076,0,4,4,4,NA,NA,NA,NA,NA,NA,NA,NA,1,1.55187041929,2,0.23654961734,NA,NA,NA,NA,NA,NA,NA,NA,"2013_Jun_14_1400","PostTest",1,29,NA,2,"Ecken","BVB",2,"BVB","Kopf",0,0,"BVB --> FCB",0,229,"FCB"
"344","E_D_04.avi",693,0,3,3,3,NA,NA,NA,NA,NA,NA,NA,NA,1,4.62700706375,4,4.86049539816,NA,NA,NA,NA,NA,NA,NA,NA,"2013_Mai_25_2304","PostTest",1,21,NA,1,"Ecken","FCB",4,"BVB","Kopf",0,0,"BVB --> FCB",0,229,"FCB"
"345","E_D_04.avi",1229,0,4,4,4,NA,NA,NA,NA,NA,NA,NA,NA,1,3.83220353425,1,0.685806715658,NA,NA,NA,NA,NA,NA,NA,NA,"2013_Jun_03_1559","PostTest",1,18,NA,2,"Ecken","FCB",1,"BVB","Kopf",0,0,"BVB --> FCB",0,229,"FCB"
"346","E_D_04.avi",2601,0,3,3,3,NA,NA,NA,NA,NA,NA,NA,NA,1,1.41518614796,3,1.76717969742,NA,NA,NA,NA,NA,NA,NA,NA,"2013_Mai_25_2305","PostTest",1,57,NA,1,"Ecken","FCB",3,"BVB","Kopf",0,0,"BVB --> FCB",0,229,"FCB"
"347","E_D_04.avi",216,0,3,3,3,NA,NA,NA,NA,NA,NA,NA,NA,1,1.69942073643,2,2.03768356034,NA,NA,NA,NA,NA,NA,NA,NA,"2013_Mai_25_2306","PostTest",1,13,NA,1,"Ecken","FCB",2,"BVB","Kopf",0,0,"BVB --> FCB",0,229,"FCB"
"348","E_D_04.avi",269,0,3,3,3,NA,NA,NA,NA,NA,NA,NA,NA,2,4.62681960975,2,1.97097117092,NA,NA,NA,NA,NA,NA,NA,NA,"2013_Mai_25_2307","PostTest",1,14,NA,1,"Ecken","FCB",2,"BVB","Kopf",1,0,"BVB --> FCB",0,229,"FCB"
"349","E_D_04.avi",390,0,4,4,4,NA,NA,NA,NA,NA,NA,NA,NA,1,2.12525698099,5,1.05413229894,NA,NA,NA,NA,NA,NA,NA,NA,"2013_Jun_05_1227","PostTest",1,6,NA,2,"Ecken","FCB",5,"BVB","Kopf",0,0,"BVB --> FCB",0,229,"FCB"
"350","E_D_04.avi",2124,0,3,3,3,NA,NA,NA,NA,NA,NA,NA,NA,2,2.04953339042,2,2.49885390462,NA,NA,NA,NA,NA,NA,NA,NA,"2013_Mai_25_2319","PostTest",1,49,NA,1,"Ecken","FCB",2,"BVB","Kopf",1,0,"BVB --> FCB",0,229,"FCB"
"351","E_D_04.avi",2018,0,3,3,3,NA,NA,NA,NA,NA,NA,NA,NA,1,2.30500999429,1,0.384058867817,NA,NA,NA,NA,NA,NA,NA,NA,"2013_Mai_25_2307","PostTest",1,47,NA,1,"Ecken","FCB",1,"BVB","Kopf",0,0,"BVB --> FCB",0,229,"FCB"
"352","E_D_04.avi",4001,0,4,4,4,NA,NA,NA,NA,NA,NA,NA,NA,1,1.85754921366,5,0.686113458554,NA,NA,NA,NA,NA,NA,NA,NA,"2013_Jun_04_0905","PostTest",1,58,NA,2,"Ecken","BVB",5,"BVB","Kopf",0,0,"BVB --> FCB",0,229,"FCB"
"353","E_D_04.avi",1276,0,3,3,3,NA,NA,NA,NA,NA,NA,NA,NA,2,3.79867329507,4,1.79105053855,NA,NA,NA,NA,NA,NA,NA,NA,"2013_Mai_25_2308","PostTest",1,32,NA,1,"Ecken","BVB",4,"BVB","Kopf",1,0,"BVB --> FCB",0,229,"FCB"
"354","E_D_04.avi",3770,0,4,4,4,NA,NA,NA,NA,NA,NA,NA,NA,2,0.585704887074,1,1.42209610439,NA,NA,NA,NA,NA,NA,NA,NA,"2013_Jun_03_1202","PostTest",1,55,NA,2,"Ecken","FCB",1,"BVB","Kopf",1,0,"BVB --> FCB",0,229,"FCB"
"355","E_D_04.avi",2923,0,4,4,4,NA,NA,NA,NA,NA,NA,NA,NA,1,1.25494217841,4,3.73166226434,NA,NA,NA,NA,NA,NA,NA,NA,"2013_Jun_04_1603","PostTest",1,41,NA,2,"Ecken","FCB",4,"BVB","Kopf",0,0,"BVB --> FCB",0,229,"FCB"
"356","E_D_04.avi",428,0,3,3,3,NA,NA,NA,NA,NA,NA,NA,NA,2,5.1982838601,2,5.7179750499,NA,NA,NA,NA,NA,NA,NA,NA,"2013_Mai_25_2305","PostTest",1,17,NA,1,"Ecken","FCB",2,"BVB","Kopf",1,0,"BVB --> FCB",0,229,"FCB"
"357","E_D_04.avi",1117,0,3,3,3,NA,NA,NA,NA,NA,NA,NA,NA,1,1.05415464815,3,2.00829937883,NA,NA,NA,NA,NA,NA,NA,NA,"2013_Mai_25_2321","PostTest",1,3,NA,1,"Ecken","BVB",3,"BVB","Kopf",0,0,"BVB --> FCB",0,229,"FCB"
"358","E_D_04.avi",2230,0,4,4,4,NA,NA,NA,NA,NA,NA,NA,NA,1,2.17540134291,3,1.94118693856,NA,NA,NA,NA,NA,NA,NA,NA,"2013_Jun_03_1259","PostTest",1,31,NA,2,"Ecken","FCB",3,"BVB","Kopf",0,0,"BVB --> FCB",0,229,"FCB"
"359","E_D_04.avi",1064,0,3,3,3,NA,NA,NA,NA,NA,NA,NA,NA,1,1.90764720097,1,0.351267828732,NA,NA,NA,NA,NA,NA,NA,NA,"2013_Mai_25_2308","PostTest",1,29,NA,1,"Ecken","BVB",1,"BVB","Kopf",0,0,"BVB --> FCB",0,229,"FCB"
"360","E_D_04.avi",1382,0,3,3,3,NA,NA,NA,NA,NA,NA,NA,NA,2,14.4918708942,2,3.31343480806,NA,NA,NA,NA,NA,NA,NA,NA,"2013_Mai_25_2308","PostTest",1,34,NA,1,"Ecken","BVB",2,"BVB","Kopf",1,0,"BVB --> FCB",0,229,"FCB"
"361","E_D_04.avi",1383,0,4,4,4,NA,NA,NA,NA,NA,NA,NA,NA,1,1.87432872055,2,1.20464667996,NA,NA,NA,NA,NA,NA,NA,NA,"2013_Jun_03_1134","PostTest",1,20,NA,2,"Ecken","FCB",2,"BVB","Kopf",0,0,"BVB --> FCB",0,229,"FCB"
"362","E_D_04.avi",2384,0,4,4,4,NA,NA,NA,NA,NA,NA,NA,NA,1,1.28857634141,2,0.802971886092,NA,NA,NA,NA,NA,NA,NA,NA,"2013_Jun_03_1707","PostTest",1,33,NA,2,"Ecken","BVB",2,"BVB","Kopf",0,0,"BVB --> FCB",0,229,"FCB"
"363","E_D_04.avi",1152,0,4,4,4,NA,NA,NA,NA,NA,NA,NA,NA,2,3.69833037439,3,5.221008536,NA,NA,NA,NA,NA,NA,NA,NA,"2013_Jun_04_1337","PostTest",1,17,NA,2,"Ecken","FCB",3,"BVB","Kopf",1,0,"BVB --> FCB",0,229,"FCB"
"364","E_D_04.avi",1753,0,3,3,3,NA,NA,NA,NA,NA,NA,NA,NA,1,2.92316851723,3,2.7125423762,NA,NA,NA,NA,NA,NA,NA,NA,"2013_Mai_25_2306","PostTest",1,41,NA,1,"Ecken","FCB",3,"BVB","Kopf",0,0,"BVB --> FCB",0,229,"FCB"
"365","E_D_04.avi",640,0,3,3,3,NA,NA,NA,NA,NA,NA,NA,NA,2,6.86956743859,1,5.70230252329,NA,NA,NA,NA,NA,NA,NA,NA,"2013_Mai_25_2304","PostTest",1,20,NA,1,"Ecken","FCB",1,"BVB","Kopf",1,0,"BVB --> FCB",0,229,"FCB"
"366","E_D_04.avi",3385,0,4,4,4,NA,NA,NA,NA,NA,NA,NA,NA,1,2.37637772398,1,0.623314415659,NA,NA,NA,NA,NA,NA,NA,NA,"2013_Jun_03_0917","PostTest",1,49,NA,2,"Ecken","FCB",1,"BVB","Kopf",0,0,"BVB --> FCB",0,229,"FCB"
"367","E_D_04.avi",921,0,4,4,4,NA,NA,NA,NA,NA,NA,NA,NA,2,1.9914128751,3,1.18805965563,NA,NA,NA,NA,NA,NA,NA,NA,"2013_Jun_03_0857","PostTest",1,13,NA,2,"Ecken","FCB",3,"BVB","Kopf",1,0,"BVB --> FCB",0,229,"FCB"
"368","E_D_04.avi",799,0,3,3,3,NA,NA,NA,NA,NA,NA,NA,NA,2,2.11252212223,3,2.06211627455,NA,NA,NA,NA,NA,NA,NA,NA,"2013_Mai_25_2303","PostTest",1,23,NA,1,"Ecken","BVB",3,"BVB","Kopf",1,0,"BVB --> FCB",0,229,"FCB"
"369","E_D_04.avi",690,0,4,4,4,NA,NA,NA,NA,NA,NA,NA,NA,1,1.58962717329,5,0.903561206801,NA,NA,NA,NA,NA,NA,NA,NA,"2013_Jun_05_0901","PostTest",1,10,NA,2,"Ecken","FCB",5,"BVB","Kopf",0,0,"BVB --> FCB",0,229,"FCB"
"370","E_D_04.avi",1306,0,4,4,4,NA,NA,NA,NA,NA,NA,NA,NA,1,0.51876090397,1,0.736169820466,NA,NA,NA,NA,NA,NA,NA,NA,"2013_Jun_03_1134","PostTest",1,19,NA,2,"Ecken","FCB",1,"BVB","Kopf",0,0,"BVB --> FCB",0,229,"FCB"
"371","E_D_04.avi",2615,0,4,4,4,NA,NA,NA,NA,NA,NA,NA,NA,1,3.21303014769,2,0.652384032049,NA,NA,NA,NA,NA,NA,NA,NA,"2013_Jun_03_1100","PostTest",1,36,NA,2,"Ecken","BVB",2,"BVB","Kopf",0,0,"BVB --> FCB",0,229,"FCB"
"372","E_D_04.avi",1859,0,3,3,3,NA,NA,NA,NA,NA,NA,NA,NA,2,1.59280774512,2,1.39148914178,NA,NA,NA,NA,NA,NA,NA,NA,"2013_Mai_25_2305","PostTest",1,43,NA,1,"Ecken","FCB",2,"BVB","Kopf",1,0,"BVB --> FCB",0,229,"FCB"
"373","E_D_04.avi",1614,0,4,4,4,NA,NA,NA,NA,NA,NA,NA,NA,1,3.76523468765,3,0.63582103312,NA,NA,NA,NA,NA,NA,NA,NA,"2013_Jun_05_1717","PostTest",1,23,NA,2,"Ecken","BVB",3,"BVB","Kopf",0,0,"BVB --> FCB",0,229,"FCB"
"374","E_D_04.avi",322,0,3,3,3,NA,NA,NA,NA,NA,NA,NA,NA,2,11.6808186515,5,4.26833578011,NA,NA,NA,NA,NA,NA,NA,NA,"2013_Mai_25_2309","PostTest",1,15,NA,1,"Ecken","FCB",5,"BVB","Kopf",1,0,"BVB --> FCB",0,229,"FCB"
"375","E_D_04.avi",2389,0,3,3,3,NA,NA,NA,NA,NA,NA,NA,NA,2,4.74481086283,3,1.02262606002,NA,NA,NA,NA,NA,NA,NA,NA,"2013_Mai_25_2304","PostTest",1,53,NA,1,"Ecken","FCB",3,"BVB","Kopf",1,0,"BVB --> FCB",0,229,"FCB"
"376","E_D_04.avi",3616,0,4,4,4,NA,NA,NA,NA,NA,NA,NA,NA,1,1.35559882611,4,3.93221624536,NA,NA,NA,NA,NA,NA,NA,NA,"2013_Jun_03_1210","PostTest",1,52,NA,2,"Ecken","BVB",4,"BVB","Kopf",0,0,"BVB --> FCB",0,229,"FCB"
"377","E_D_04.avi",1768,0,4,4,4,NA,NA,NA,NA,NA,NA,NA,NA,1,1.72369505063,3,2.79453142788,NA,NA,NA,NA,NA,NA,NA,NA,"2013_Jun_03_1121","PostTest",1,25,NA,2,"Ecken","BVB",3,"BVB","Kopf",0,0,"BVB --> FCB",0,229,"FCB"
"378","E_D_04.avi",2153,0,4,4,4,NA,NA,NA,NA,NA,NA,NA,NA,1,0.753069174993,4,1.22152759638,NA,NA,NA,NA,NA,NA,NA,NA,"2013_Jun_05_1759","PostTest",1,30,NA,2,"Ecken","BVB",4,"BVB","Kopf",0,0,"BVB --> FCB",0,229,"FCB"
"379","E_D_04.avi",2336,0,3,3,3,NA,NA,NA,NA,NA,NA,NA,NA,1,2.09580407566,1,3.3369671285,NA,NA,NA,NA,NA,NA,NA,NA,"2013_Mai_25_2304","PostTest",1,52,NA,1,"Ecken","BVB",1,"BVB","Kopf",0,0,"BVB --> FCB",0,229,"FCB"
"380","E_D_04.avi",2813,0,3,3,3,NA,NA,NA,NA,NA,NA,NA,NA,1,1.82066966612,4,3.10675993737,NA,NA,NA,NA,NA,NA,NA,NA,"2013_Mai_25_2306","PostTest",1,60,NA,1,"Ecken","BVB",4,"BVB","Kopf",0,0,"BVB --> FCB",0,229,"FCB"
"381","E_D_04.avi",1223,0,3,3,3,NA,NA,NA,NA,NA,NA,NA,NA,1,4.04938253325,3,2.04390390399,NA,NA,NA,NA,NA,NA,NA,NA,"2013_May_25_2308","PostTest",1,31,NA,1,"Ecken","FCB",3,"BVB","Kopf",0,0,"BVB --> FCB",0,229,"FCB"
"382","E_D_04.avi",1075,0,4,4,4,NA,NA,NA,NA,NA,NA,NA,NA,1,1.52287427592,1,0.501895911352,NA,NA,NA,NA,NA,NA,NA,NA,"2013_Jun_03_1557","PostTest",1,16,NA,2,"Ecken","FCB",1,"BVB","Kopf",0,0,"BVB --> FCB",0,229,"FCB"
"383","E_D_04.avi",2707,0,3,3,3,NA,NA,NA,NA,NA,NA,NA,NA,1,2.30340329567,3,1.95951782978,NA,NA,NA,NA,NA,NA,NA,NA,"2013_Mai_25_2306","PostTest",1,59,NA,1,"Ecken","FCB",3,"BVB","Kopf",0,0,"BVB --> FCB",0,229,"FCB"
"384","E_D_04.avi",3539,0,4,4,4,NA,NA,NA,NA,NA,NA,NA,NA,2,10.5092094107,3,5.90710886439,NA,NA,NA,NA,NA,NA,NA,NA,"2013_Jun_05_1605","PostTest",1,51,NA,2,"Ecken","FCB",3,"BVB","Kopf",1,0,"BVB --> FCB",0,229,"FCB"
"385","E_D_04.avi",467,0,4,4,4,NA,NA,NA,NA,NA,NA,NA,NA,1,1.69011005589,3,1.25488602602,NA,NA,NA,NA,NA,NA,NA,NA,"2013_Jun_05_1650","PostTest",1,7,NA,2,"Ecken","BVB",3,"BVB","Kopf",0,0,"BVB --> FCB",0,229,"FCB"
"386","E_D_04.avi",1488,0,3,3,3,NA,NA,NA,NA,NA,NA,NA,NA,2,5.0529033718,3,5.52211160916,NA,NA,NA,NA,NA,NA,NA,NA,"2013_Mai_25_2307","PostTest",1,36,NA,1,"Ecken","BVB",3,"BVB","Kopf",1,0,"BVB --> FCB",0,229,"FCB"
"387","E_D_04.avi",3154,0,4,4,4,NA,NA,NA,NA,NA,NA,NA,NA,2,1.58985066538,3,1.20469026091,NA,NA,NA,NA,NA,NA,NA,NA,"2013_Jun_05_1807","PostTest",1,53,NA,2,"Ecken","FCB",3,"BVB","Kopf",1,0,"BVB --> FCB",0,229,"FCB"
"388","E_D_04.avi",57,0,3,3,3,NA,NA,NA,NA,NA,NA,NA,NA,1,1.53673860784,1,1.7704820026,NA,NA,NA,NA,NA,NA,NA,NA,"2013_Mai_25_2304","PostTest",1,10,NA,1,"Ecken","FCB",1,"BVB","Kopf",0,0,"BVB --> FCB",0,229,"FCB"
"389","E_D_04.avi",1537,0,4,4,4,NA,NA,NA,NA,NA,NA,NA,NA,1,3.43038486735,5,1.65675274371,NA,NA,NA,NA,NA,NA,NA,NA,"2013_Jun_04_1322","PostTest",1,22,NA,2,"Ecken","FCB",5,"BVB","Kopf",0,0,"BVB --> FCB",0,229,"FCB"
"390","E_D_04.avi",1011,0,3,3,3,NA,NA,NA,NA,NA,NA,NA,NA,1,2.17547034609,4,5.28782233496,NA,NA,NA,NA,NA,NA,NA,NA,"2013_Mai_25_2307","PostTest",1,28,NA,1,"Ecken","BVB",4,"BVB","Kopf",0,0,"BVB --> FCB",0,229,"FCB"
"391","E_D_04.avi",4155,0,4,4,4,NA,NA,NA,NA,NA,NA,NA,NA,1,1.33887798589,5,3.02867571158,NA,NA,NA,NA,NA,NA,NA,NA,"2013_Jun_03_0930","PostTest",1,60,NA,2,"Ecken","BVB",5,"BVB","Kopf",0,0,"BVB --> FCB",0,229,"FCB"
"392","E_D_04.avi",746,0,3,3,3,NA,NA,NA,NA,NA,NA,NA,NA,1,0.918803088102,5,1.67021032003,NA,NA,NA,NA,NA,NA,NA,NA,"2013_Mai_25_2304","PostTest",1,22,NA,1,"Ecken","FCB",5,"BVB","Kopf",0,0,"BVB --> FCB",0,229,"FCB"
"393","E_D_04.avi",2538,0,4,4,4,NA,NA,NA,NA,NA,NA,NA,NA,1,2.24226598632,3,1.20459695296,NA,NA,NA,NA,NA,NA,NA,NA,"2013_Jun_03_1558","PostTest",1,35,NA,2,"Ecken","FCB",3,"BVB","Kopf",0,0,"BVB --> FCB",0,229,"FCB"
"394","E_D_04.avi",163,0,3,3,3,NA,NA,NA,NA,NA,NA,NA,NA,2,1.21933541833,2,0.901862108173,NA,NA,NA,NA,NA,NA,NA,NA,"2013_Mai_25_2305","PostTest",1,12,NA,1,"Ecken","FCB",2,"BVB","Kopf",1,0,"BVB --> FCB",0,229,"FCB"
"395","E_D_04.avi",2283,0,3,3,3,NA,NA,NA,NA,NA,NA,NA,NA,1,3.01787992608,4,2.06201709994,NA,NA,NA,NA,NA,NA,NA,NA,"2013_Mai_25_2304","PostTest",1,51,NA,1,"Ecken","FCB",4,"BVB","Kopf",0,0,"BVB --> FCB",0,229,"FCB"
"396","E_D_04.avi",2919,0,3,3,3,NA,NA,NA,NA,NA,NA,NA,NA,1,1.92085977408,3,1.33616730618,NA,NA,NA,NA,NA,NA,NA,NA,"2013_Mai_25_2306","PostTest",1,7,NA,1,"Ecken","BVB",3,"BVB","Kopf",0,0,"BVB --> FCB",0,229,"FCB"
"397","E_D_04.avi",1922,0,4,4,4,NA,NA,NA,NA,NA,NA,NA,NA,2,3.38030894988,5,2.543484996,NA,NA,NA,NA,NA,NA,NA,NA,"2013_Jun_05_1419","PostTest",1,15,NA,2,"Ecken","FCB",5,"BVB","Kopf",1,0,"BVB --> FCB",0,229,"FCB"
"398","E_D_04.avi",2307,0,4,4,4,NA,NA,NA,NA,NA,NA,NA,NA,1,1.07084224392,3,1.89086490043,NA,NA,NA,NA,NA,NA,NA,NA,"2013_Jun_04_1959","PostTest",1,32,NA,2,"Ecken","BVB",3,"BVB","Kopf",0,0,"BVB --> FCB",0,229,"FCB"
"399","E_D_07.avi",1279,0,6,6,6,NA,NA,NA,NA,NA,NA,NA,NA,1,2.86122454111,1,1.23811992865,NA,NA,NA,NA,NA,NA,NA,NA,"2013_Mai_25_2308","PostTest",1,32,NA,1,"Ecken","BVB",1,"BVB","Kopf",0,0,"BVB --> BVB",0,213,NA
"400","E_D_07.avi",1332,0,6,6,6,NA,NA,NA,NA,NA,NA,NA,NA,1,1.65665720085,1,1.3722517806,NA,NA,NA,NA,NA,NA,NA,NA,"2013_Mai_25_2308","PostTest",1,33,NA,1,"Ecken","BVB",1,"BVB","Kopf",0,0,"BVB --> BVB",0,213,NA
"401","E_D_07.avi",624,0,7,7,7,NA,NA,NA,NA,NA,NA,NA,NA,2,2.20906344242,1,0.267891310208,NA,NA,NA,NA,NA,NA,NA,NA,"2013_Jun_03_0804","PostTest",1,9,NA,2,"Ecken","FCB",1,"BVB","Kopf",1,0,"BVB --> BVB",0,213,NA
"402","E_D_07.avi",2074,0,6,6,6,NA,NA,NA,NA,NA,NA,NA,NA,1,5.01884818234,2,1.06709513688,NA,NA,NA,NA,NA,NA,NA,NA,"2013_Mai_25_2318","PostTest",1,48,NA,1,"Ecken","FCB",2,"BVB","Kopf",0,0,"BVB --> BVB",0,213,NA
"403","E_D_07.avi",770,0,7,7,7,NA,NA,NA,NA,NA,NA,NA,NA,2,3.49752077429,4,1.22143987574,NA,NA,NA,NA,NA,NA,NA,NA,"2013_Jun_03_1001","PostTest",1,11,NA,2,"Ecken","FCB",4,"BVB","Kopf",1,0,"BVB --> BVB",0,213,NA
"404","E_D_07.avi",1463,0,7,7,7,NA,NA,NA,NA,NA,NA,NA,NA,1,9.89009077969,3,2.20854885188,NA,NA,NA,NA,NA,NA,NA,NA,"2013_Jun_04_1337","PostTest",1,21,NA,2,"Ecken","FCB",3,"BVB","Kopf",0,0,"BVB --> BVB",0,213,NA
"405","E_D_07.avi",113,0,6,6,6,NA,NA,NA,NA,NA,NA,NA,NA,2,3.34062457659,4,1.87064920262,NA,NA,NA,NA,NA,NA,NA,NA,"2013_Mai_25_2305","PostTest",1,11,NA,1,"Ecken","FCB",4,"BVB","Kopf",1,0,"BVB --> BVB",0,213,NA
"406","E_D_07.avi",693,0,7,7,7,NA,NA,NA,NA,NA,NA,NA,NA,1,4.18361719157,1,0.233964931297,NA,NA,NA,NA,NA,NA,NA,NA,"2013_Jun_05_0901","PostTest",1,10,NA,2,"Ecken","FCB",1,"BVB","Kopf",0,0,"BVB --> BVB",0,213,NA
"407","E_D_07.avi",1756,0,6,6,6,NA,NA,NA,NA,NA,NA,NA,NA,2,4.54691692659,4,3.12125060587,NA,NA,NA,NA,NA,NA,NA,NA,"2013_Mai_25_2306","PostTest",1,41,NA,1,"Ecken","FCB",4,"BVB","Kopf",1,0,"BVB --> BVB",0,213,NA
"408","E_D_07.avi",2772,0,7,7,7,NA,NA,NA,NA,NA,NA,NA,NA,2,1.64000284952,3,0.300952495359,NA,NA,NA,NA,NA,NA,NA,NA,"2013_Jun_03_0954","PostTest",1,39,NA,2,"Ecken","FCB",3,"BVB","Kopf",1,0,"BVB --> BVB",0,213,NA
"409","E_D_07.avi",547,0,7,7,7,NA,NA,NA,NA,NA,NA,NA,NA,1,1.38875695095,4,2.66074738549,NA,NA,NA,NA,NA,NA,NA,NA,"2013_Jun_06_1539","PostTest",1,8,NA,2,"Ecken","FCB",4,"BVB","Kopf",0,0,"BVB --> BVB",0,213,NA
"410","E_D_07.avi",590,0,6,6,6,NA,NA,NA,NA,NA,NA,NA,NA,1,3.06205956344,2,1.9917972815,NA,NA,NA,NA,NA,NA,NA,NA,"2013_Mai_25_2308","PostTest",1,2,NA,1,"Ecken","FCB",2,"BVB","Kopf",0,0,"BVB --> BVB",0,213,NA
"411","E_D_07.avi",1078,0,7,7,7,NA,NA,NA,NA,NA,NA,NA,NA,2,2.05817890263,2,0.686167096656,NA,NA,NA,NA,NA,NA,NA,NA,"2013_Jun_03_1557","PostTest",1,16,NA,2,"Ecken","FCB",2,"BVB","Kopf",1,0,"BVB --> BVB",0,213,NA
"412","E_D_07.avi",2816,0,6,6,6,NA,NA,NA,NA,NA,NA,NA,NA,1,1.73717106504,3,1.00210194312,NA,NA,NA,NA,NA,NA,NA,NA,"2013_Mai_25_2306","PostTest",1,60,NA,1,"Ecken","BVB",3,"BVB","Kopf",0,0,"BVB --> BVB",0,213,NA
"413","E_D_07.avi",2127,0,6,6,6,NA,NA,NA,NA,NA,NA,NA,NA,2,1.6830267534,2,1.6158176528,NA,NA,NA,NA,NA,NA,NA,NA,"2013_Mai_25_2319","PostTest",1,49,NA,1,"Ecken","FCB",2,"BVB","Kopf",1,0,"BVB --> BVB",0,213,NA
"414","E_D_07.avi",847,0,7,7,7,NA,NA,NA,NA,NA,NA,NA,NA,2,2.00816165183,2,0.20054727626,NA,NA,NA,NA,NA,NA,NA,NA,"2013_Jun_03_1458","PostTest",1,12,NA,2,"Ecken","FCB",2,"BVB","Kopf",1,0,"BVB --> BVB",0,213,NA
"415","E_D_07.avi",1386,0,7,7,7,NA,NA,NA,NA,NA,NA,NA,NA,1,3.66488170983,3,0.685941090278,NA,NA,NA,NA,NA,NA,NA,NA,"2013_Jun_03_1134","PostTest",1,20,NA,2,"Ecken","FCB",3,"BVB","Kopf",0,0,"BVB --> BVB",0,213,NA
"416","E_D_07.avi",2079,0,7,7,7,NA,NA,NA,NA,NA,NA,NA,NA,1,5.9911614465,1,1.07448013644,NA,NA,NA,NA,NA,NA,NA,NA,"2013_Jun_14_1400","PostTest",1,29,NA,2,"Ecken","BVB",1,"BVB","Kopf",0,0,"BVB --> BVB",0,213,NA
"417","E_D_07.avi",239,0,7,7,7,NA,NA,NA,NA,NA,NA,NA,NA,1,2.09165801799,1,2.25916338529,NA,NA,NA,NA,NA,NA,NA,NA,"2013_Jun_04_1612","PostTest",1,4,NA,2,"Ecken","FCB",1,"BVB","Kopf",0,0,"BVB --> BVB",0,213,NA
"418","E_D_07.avi",166,0,6,6,6,NA,NA,NA,NA,NA,NA,NA,NA,2,2.45554784197,2,1.01844536107,NA,NA,NA,NA,NA,NA,NA,NA,"2013_Mai_25_2305","PostTest",1,12,NA,1,"Ecken","FCB",2,"BVB","Kopf",1,0,"BVB --> BVB",0,213,NA
"419","E_D_07.avi",2869,0,6,6,6,NA,NA,NA,NA,NA,NA,NA,NA,1,3.30734381046,4,1.68702502692,NA,NA,NA,NA,NA,NA,NA,NA,"2013_Mai_25_2307","PostTest",1,61,NA,1,"Ecken","FCB",4,"BVB","Kopf",0,0,"BVB --> BVB",0,213,NA
"420","E_D_07.avi",2922,0,6,6,6,NA,NA,NA,NA,NA,NA,NA,NA,2,1.72042647878,4,1.47015416764,NA,NA,NA,NA,NA,NA,NA,NA,"2013_Mai_25_2306","PostTest",1,7,NA,1,"Ecken","BVB",4,"BVB","Kopf",1,0,"BVB --> BVB",0,213,NA
"421","E_D_07.avi",162,0,7,7,7,NA,NA,NA,NA,NA,NA,NA,NA,2,1.75692525167,4,0.435158379068,NA,NA,NA,NA,NA,NA,NA,NA,"2013_Jun_04_2052","PostTest",1,3,NA,2,"Ecken","BVB",4,"BVB","Kopf",1,0,"BVB --> BVB",0,213,NA
"422","E_D_07.avi",2604,0,6,6,6,NA,NA,NA,NA,NA,NA,NA,NA,1,2.16764972923,5,0.794033319877,NA,NA,NA,NA,NA,NA,NA,NA,"2013_Mai_25_2305","PostTest",1,57,NA,1,"Ecken","FCB",5,"BVB","Kopf",0,0,"BVB --> BVB",0,213,NA
"423","E_D_07.avi",1540,0,7,7,7,NA,NA,NA,NA,NA,NA,NA,NA,2,2.07514502542,1,1.67330317121,NA,NA,NA,NA,NA,NA,NA,NA,"2013_Jun_04_1322","PostTest",1,22,NA,2,"Ecken","FCB",1,"BVB","Kopf",1,0,"BVB --> BVB",0,213,NA
"424","E_D_07.avi",8,0,7,7,7,NA,NA,NA,NA,NA,NA,NA,NA,1,2.12527178734,2,0.736194683961,NA,NA,NA,NA,NA,NA,NA,NA,"2013_Jun_03_1501","PostTest",1,1,NA,2,"Ecken","BVB",2,"BVB","Kopf",0,0,"BVB --> BVB",0,213,NA
"425","E_D_07.avi",2657,0,6,6,6,NA,NA,NA,NA,NA,NA,NA,NA,1,4.1270643336,2,1.52552035245,NA,NA,NA,NA,NA,NA,NA,NA,"2013_Mai_25_2306","PostTest",1,58,NA,1,"Ecken","BVB",2,"BVB","Kopf",0,0,"BVB --> BVB",0,213,NA
"426","E_D_07.avi",2763,0,6,6,6,NA,NA,NA,NA,NA,NA,NA,NA,1,3.41348243981,3,1.69023465273,NA,NA,NA,NA,NA,NA,NA,NA,"2013_Mai_25_2308","PostTest",1,6,NA,1,"Ecken","FCB",3,"BVB","Kopf",0,0,"BVB --> BVB",0,213,NA
"427","E_D_07.avi",3465,0,7,7,7,NA,NA,NA,NA,NA,NA,NA,NA,1,2.54357774522,2,0.401572825597,NA,NA,NA,NA,NA,NA,NA,NA,"2013_Jun_04_1159","PostTest",1,50,NA,2,"Ecken","FCB",2,"BVB","Kopf",0,0,"BVB --> BVB",0,213,NA
"428","E_D_07.avi",2233,0,7,7,7,NA,NA,NA,NA,NA,NA,NA,NA,1,2.69421923736,4,1.35537030544,NA,NA,NA,NA,NA,NA,NA,NA,"2013_Jun_03_1259","PostTest",1,31,NA,2,"Ecken","FCB",4,"BVB","Kopf",0,0,"BVB --> BVB",0,213,NA
"429","E_D_07.avi",2849,0,7,7,7,NA,NA,NA,NA,NA,NA,NA,NA,1,4.25036031116,3,1.22166308847,NA,NA,NA,NA,NA,NA,NA,NA,"2013_Jun_03_1239","PostTest",1,40,NA,2,"Ecken","BVB",3,"BVB","Kopf",0,0,"BVB --> BVB",0,213,NA
"430","E_D_07.avi",219,0,6,6,6,NA,NA,NA,NA,NA,NA,NA,NA,1,3.09024191622,2,2.68892135732,NA,NA,NA,NA,NA,NA,NA,NA,"2013_Mai_25_2306","PostTest",1,13,NA,1,"Ecken","FCB",2,"BVB","Kopf",0,0,"BVB --> BVB",0,213,NA
"431","E_D_07.avi",4235,0,7,7,7,NA,NA,NA,NA,NA,NA,NA,NA,1,1.99142516717,4,1.42208912027,NA,NA,NA,NA,NA,NA,NA,NA,"2013_Jun_04_1926","PostTest",1,61,NA,2,"Ecken","FCB",4,"BVB","Kopf",0,0,"BVB --> BVB",0,213,NA
"432","E_D_07.avi",2387,0,7,7,7,NA,NA,NA,NA,NA,NA,NA,NA,1,1.372240606,2,1.10437192436,NA,NA,NA,NA,NA,NA,NA,NA,"2013_Jun_03_1707","PostTest",1,33,NA,2,"Ecken","BVB",2,"BVB","Kopf",0,0,"BVB --> BVB",0,213,NA
"433","E_D_07.avi",961,0,6,6,6,NA,NA,NA,NA,NA,NA,NA,NA,1,7.39945048882,1,2.15493365777,NA,NA,NA,NA,NA,NA,NA,NA,"2013_Mai_25_2305","PostTest",1,26,NA,1,"Ecken","FCB",1,"BVB","Kopf",0,0,"BVB --> BVB",0,213,NA
"434","E_D_07.avi",1703,0,6,6,6,NA,NA,NA,NA,NA,NA,NA,NA,2,3.64152250787,4,1.83781355453,NA,NA,NA,NA,NA,NA,NA,NA,"2013_Mai_25_2307","PostTest",1,40,NA,1,"Ecken","BVB",4,"BVB","Kopf",1,0,"BVB --> BVB",0,213,NA
"435","E_D_07.avi",1155,0,7,7,7,NA,NA,NA,NA,NA,NA,NA,NA,1,4.41787517687,2,2.47657844782,NA,NA,NA,NA,NA,NA,NA,NA,"2013_Jun_04_1337","PostTest",1,17,NA,2,"Ecken","FCB",2,"BVB","Kopf",0,0,"BVB --> BVB",0,213,NA
"436","E_D_07.avi",908,0,6,6,6,NA,NA,NA,NA,NA,NA,NA,NA,1,3.99204843074,3,2.52190040913,NA,NA,NA,NA,NA,NA,NA,NA,"2013_Mai_25_2307","PostTest",1,25,NA,1,"Ecken","BVB",3,"BVB","Kopf",0,0,"BVB --> BVB",0,213,NA
"437","E_D_07.avi",537,0,6,6,6,NA,NA,NA,NA,NA,NA,NA,NA,1,0.316600294171,1,0.33313982643,NA,NA,NA,NA,NA,NA,NA,NA,"2013_Mai_25_2304","PostTest",1,19,NA,1,"Ecken","FCB",1,"BVB","Kopf",0,0,"BVB --> BVB",0,213,NA
"438","E_D_07.avi",2286,0,6,6,6,NA,NA,NA,NA,NA,NA,NA,NA,1,6.28720829044,1,2.71598652901,NA,NA,NA,NA,NA,NA,NA,NA,"2013_Mai_25_2304","PostTest",1,51,NA,1,"Ecken","FCB",1,"BVB","Kopf",0,0,"BVB --> BVB",0,213,NA
"439","E_D_07.avi",1915,0,6,6,6,NA,NA,NA,NA,NA,NA,NA,NA,1,2.11251653492,4,3.31961715805,NA,NA,NA,NA,NA,NA,NA,NA,"2013_Mai_25_2305","PostTest",1,44,NA,1,"Ecken","BVB",4,"BVB","Kopf",0,0,"BVB --> BVB",0,213,NA
"440","E_D_07.avi",2464,0,7,7,7,NA,NA,NA,NA,NA,NA,NA,NA,1,3.99934516817,5,1.50600984203,NA,NA,NA,NA,NA,NA,NA,NA,"2013_Jun_04_1339","PostTest",1,34,NA,2,"Ecken","BVB",5,"BVB","Kopf",0,0,"BVB --> BVB",0,213,NA
"441","E_D_07.avi",3080,0,7,7,7,NA,NA,NA,NA,NA,NA,NA,NA,1,1.90776369622,3,1.52269129177,NA,NA,NA,NA,NA,NA,NA,NA,"2013_Jun_03_0902","PostTest",1,44,NA,2,"Ecken","BVB",3,"BVB","Kopf",0,0,"BVB --> BVB",0,213,NA
"442","E_D_07.avi",2002,0,7,7,7,NA,NA,NA,NA,NA,NA,NA,NA,1,2.0081610931,4,2.87819820676,NA,NA,NA,NA,NA,NA,NA,NA,"2013_Jun_05_1107","PostTest",1,28,NA,2,"Ecken","BVB",4,"BVB","Kopf",0,0,"BVB --> BVB",0,213,NA
"443","E_D_07.avi",4081,0,7,7,7,NA,NA,NA,NA,NA,NA,NA,NA,1,3.27982997839,3,1.60652988019,NA,NA,NA,NA,NA,NA,NA,NA,"2013_Jun_03_0904","PostTest",1,59,NA,2,"Ecken","FCB",3,"BVB","Kopf",0,0,"BVB --> BVB",0,213,NA
"444","E_D_07.avi",1809,0,6,6,6,NA,NA,NA,NA,NA,NA,NA,NA,2,6.11966185646,2,9.75777843273,NA,NA,NA,NA,NA,NA,NA,NA,"2013_Mai_25_2304","PostTest",1,42,NA,1,"Ecken","BVB",2,"BVB","Kopf",1,0,"BVB --> BVB",0,213,NA
"445","E_D_07.avi",1862,0,6,6,6,NA,NA,NA,NA,NA,NA,NA,NA,1,1.2574631692,2,1.37469259361,NA,NA,NA,NA,NA,NA,NA,NA,"2013_Mai_25_2305","PostTest",1,43,NA,1,"Ecken","FCB",2,"BVB","Kopf",0,0,"BVB --> BVB",0,213,NA
"446","E_D_07.avi",2498,0,6,6,6,NA,NA,NA,NA,NA,NA,NA,NA,1,1.08258598509,3,0.504685092658,NA,NA,NA,NA,NA,NA,NA,NA,"2013_Mai_25_2303","PostTest",1,55,NA,1,"Ecken","FCB",3,"BVB","Kopf",0,0,"BVB --> BVB",0,213,NA
"447","E_D_07.avi",1771,0,7,7,7,NA,NA,NA,NA,NA,NA,NA,NA,2,7.91548562736,3,1.95765830573,NA,NA,NA,NA,NA,NA,NA,NA,"2013_Jun_03_1121","PostTest",1,25,NA,2,"Ecken","BVB",3,"BVB","Kopf",1,0,"BVB --> BVB",0,213,NA
"448","E_D_07.avi",316,0,7,7,7,NA,NA,NA,NA,NA,NA,NA,NA,2,2.14185378309,3,1.00394072431,NA,NA,NA,NA,NA,NA,NA,NA,"2013_Jun_03_1005","PostTest",1,5,NA,2,"Ecken","BVB",3,"BVB","Kopf",1,0,"BVB --> BVB",0,213,NA
"449","E_D_07.avi",643,0,6,6,6,NA,NA,NA,NA,NA,NA,NA,NA,1,2.45093416816,3,1.4672212645,NA,NA,NA,NA,NA,NA,NA,NA,"2013_Mai_25_2304","PostTest",1,20,NA,1,"Ecken","FCB",3,"BVB","Kopf",0,0,"BVB --> BVB",0,213,NA
"450","E_D_07.avi",2695,0,7,7,7,NA,NA,NA,NA,NA,NA,NA,NA,1,2.86164135386,3,1.55613911824,NA,NA,NA,NA,NA,NA,NA,NA,"2013_Jun_03_1017","PostTest",1,38,NA,2,"Ecken","BVB",3,"BVB","Kopf",0,0,"BVB --> BVB",0,213,NA
"451","E_D_07.avi",855,0,6,6,6,NA,NA,NA,NA,NA,NA,NA,NA,2,7.65032036195,1,0.768038675307,NA,NA,NA,NA,NA,NA,NA,NA,"2013_Mai_25_2307","PostTest",1,24,NA,1,"Ecken","BVB",1,"BVB","Kopf",1,0,"BVB --> BVB",0,213,NA
"452","E_D_07.avi",802,0,6,6,6,NA,NA,NA,NA,NA,NA,NA,NA,2,5.91833710709,3,1.22383878398,NA,NA,NA,NA,NA,NA,NA,NA,"2013_Mai_25_2303","PostTest",1,23,NA,1,"Ecken","BVB",3,"BVB","Kopf",1,0,"BVB --> BVB",0,213,NA
"453","E_D_07.avi",1173,0,6,6,6,NA,NA,NA,NA,NA,NA,NA,NA,2,3.26347706203,3,1.22106105664,NA,NA,NA,NA,NA,NA,NA,NA,"2013_Mai_25_2308","PostTest",1,30,NA,1,"Ecken","BVB",3,"BVB","Kopf",1,0,"BVB --> BVB",0,213,NA
"454","E_D_07.avi",1067,0,6,6,6,NA,NA,NA,NA,NA,NA,NA,NA,1,3.96610435125,2,1.32208702503,NA,NA,NA,NA,NA,NA,NA,NA,"2013_Mai_25_2308","PostTest",1,29,NA,1,"Ecken","BVB",2,"BVB","Kopf",0,0,"BVB --> BVB",0,213,NA
"455","E_D_07.avi",470,0,7,7,7,NA,NA,NA,NA,NA,NA,NA,NA,1,1.5560921849,2,1.89102134489,NA,NA,NA,NA,NA,NA,NA,NA,"2013_Jun_05_1650","PostTest",1,7,NA,2,"Ecken","BVB",2,"BVB","Kopf",0,0,"BVB --> BVB",0,213,NA
"456","E_D_07.avi",1120,0,6,6,6,NA,NA,NA,NA,NA,NA,NA,NA,2,2.09182731325,5,1.17130054239,NA,NA,NA,NA,NA,NA,NA,NA,"2013_Mai_25_2321","PostTest",1,3,NA,1,"Ecken","BVB",5,"BVB","Kopf",1,0,"BVB --> BVB",0,213,NA
"457","E_D_07.avi",2233,0,6,6,6,NA,NA,NA,NA,NA,NA,NA,NA,1,2.40525597527,3,6.76469523361,NA,NA,NA,NA,NA,NA,NA,NA,"2013_Mai_25_2305","PostTest",1,50,NA,1,"Ecken","FCB",3,"BVB","Kopf",0,0,"BVB --> BVB",0,213,NA
"458","E_D_07.avi",3028,0,6,6,6,NA,NA,NA,NA,NA,NA,NA,NA,2,4.69344958647,1,0.56778054194,NA,NA,NA,NA,NA,NA,NA,NA,"2013_Mai_25_2304","PostTest",1,9,NA,1,"Ecken","FCB",1,"BVB","Kopf",1,0,"BVB --> BVB",0,213,NA
"459","E_D_07.avi",393,0,7,7,7,NA,NA,NA,NA,NA,NA,NA,NA,2,3.12942734342,3,2.45959584249,NA,NA,NA,NA,NA,NA,NA,NA,"2013_Jun_05_1227","PostTest",1,6,NA,2,"Ecken","FCB",3,"BVB","Kopf",1,0,"BVB --> BVB",0,213,NA
"460","E_D_07.avi",2551,0,6,6,6,NA,NA,NA,NA,NA,NA,NA,NA,1,3.21903314527,2,4.04043418926,NA,NA,NA,NA,NA,NA,NA,NA,"2013_Mai_25_2304","PostTest",1,56,NA,1,"Ecken","FCB",2,"BVB","Kopf",0,0,"BVB --> BVB",0,213,NA
"461","E_D_07.avi",272,0,6,6,6,NA,NA,NA,NA,NA,NA,NA,NA,1,1.35295659085,2,0.918722630949,NA,NA,NA,NA,NA,NA,NA,NA,"2013_Mai_25_2307","PostTest",1,14,NA,1,"Ecken","FCB",2,"BVB","Kopf",0,0,"BVB --> BVB",0,213,NA
"462","E_D_07.avi",1650,0,6,6,6,NA,NA,NA,NA,NA,NA,NA,NA,1,4.26762479589,1,1.72293433942,NA,NA,NA,NA,NA,NA,NA,NA,"2013_Mai_25_2308","PostTest",1,4,NA,1,"Ecken","FCB",1,"BVB","Kopf",0,0,"BVB --> BVB",0,213,NA
"463","E_D_07.avi",2392,0,6,6,6,NA,NA,NA,NA,NA,NA,NA,NA,2,4.91115909983,3,0.56995651682,NA,NA,NA,NA,NA,NA,NA,NA,"2013_Mai_25_2304","PostTest",1,53,NA,1,"Ecken","FCB",3,"BVB","Kopf",1,0,"BVB --> BVB",0,213,NA
"464","E_D_07.avi",1385,0,6,6,6,NA,NA,NA,NA,NA,NA,NA,NA,2,6.19180705928,3,3.8819768993,NA,NA,NA,NA,NA,NA,NA,NA,"2013_Mai_25_2308","PostTest",1,34,NA,1,"Ecken","BVB",3,"BVB","Kopf",1,0,"BVB --> BVB",0,213,NA
"465","E_D_07.avi",85,0,7,7,7,NA,NA,NA,NA,NA,NA,NA,NA,2,1.84082362423,3,0.836562468135,NA,NA,NA,NA,NA,NA,NA,NA,"2013_Jun_03_1707","PostTest",1,2,NA,2,"Ecken","FCB",3,"BVB","Kopf",1,0,"BVB --> BVB",0,213,NA
"466","E_D_07.avi",924,0,7,7,7,NA,NA,NA,NA,NA,NA,NA,NA,2,3.24649501543,3,0.434813363151,NA,NA,NA,NA,NA,NA,NA,NA,"2013_Jun_03_0857","PostTest",1,13,NA,2,"Ecken","FCB",3,"BVB","Kopf",1,0,"BVB --> BVB",0,213,NA
"467","E_D_07.avi",3850,0,7,7,7,NA,NA,NA,NA,NA,NA,NA,NA,2,2.8447230025,5,1.74040639243,NA,NA,NA,NA,NA,NA,NA,NA,"2013_Jun_03_0805","PostTest",1,56,NA,2,"Ecken","FCB",5,"BVB","Kopf",1,0,"BVB --> BVB",0,213,NA
"468","E_D_07.avi",3234,0,7,7,7,NA,NA,NA,NA,NA,NA,NA,NA,2,3.0288341116,2,1.40580213407,NA,NA,NA,NA,NA,NA,NA,NA,"2013_Jun_05_1401","PostTest",1,47,NA,2,"Ecken","FCB",2,"BVB","Kopf",1,0,"BVB --> BVB",0,213,NA
"469","E_D_07.avi",696,0,6,6,6,NA,NA,NA,NA,NA,NA,NA,NA,1,11.2413982783,3,4.77726107648,NA,NA,NA,NA,NA,NA,NA,NA,"2013_Mai_25_2304","PostTest",1,21,NA,1,"Ecken","FCB",3,"BVB","Kopf",0,0,"BVB --> BVB",0,213,NA
"470","E_D_07.avi",1001,0,7,7,7,NA,NA,NA,NA,NA,NA,NA,NA,1,2.39311420865,4,2.0079392772,NA,NA,NA,NA,NA,NA,NA,NA,"2013_Jun_03_1431","PostTest",1,14,NA,2,"Ecken","FCB",4,"BVB","Kopf",0,0,"BVB --> BVB",0,213,NA
"471","E_D_07.avi",3696,0,7,7,7,NA,NA,NA,NA,NA,NA,NA,NA,2,1.50588021662,1,0.53537698227,NA,NA,NA,NA,NA,NA,NA,NA,"2013_Jun_03_1359","PostTest",1,54,NA,2,"Ecken","BVB",1,"BVB","Kopf",1,0,"BVB --> BVB",0,213,NA
"472","E_D_07.avi",3619,0,7,7,7,NA,NA,NA,NA,NA,NA,NA,NA,2,2.57711440979,2,1.69019358606,NA,NA,NA,NA,NA,NA,NA,NA,"2013_Jun_03_1210","PostTest",1,52,NA,2,"Ecken","BVB",2,"BVB","Kopf",1,0,"BVB --> BVB",0,213,NA
"473","E_D_07.avi",3003,0,7,7,7,NA,NA,NA,NA,NA,NA,NA,NA,1,1.77388327287,2,3.04537951052,NA,NA,NA,NA,NA,NA,NA,NA,"2013_Jun_04_0925","PostTest",1,43,NA,2,"Ecken","FCB",2,"BVB","Kopf",0,0,"BVB --> BVB",0,213,NA
"474","E_D_07.avi",3773,0,7,7,7,NA,NA,NA,NA,NA,NA,NA,NA,1,1.27169430752,3,1.02064228834,NA,NA,NA,NA,NA,NA,NA,NA,"2013_Jun_03_1202","PostTest",1,55,NA,2,"Ecken","FCB",3,"BVB","Kopf",0,0,"BVB --> BVB",0,213,NA
