"","X","Movie","trials.thisRepN","trials.thisTrialN","trials.thisN","trials.thisIndex","trials_2.thisRepN","trials_2.thisTrialN","trials_2.thisN","trials_2.thisIndex","trials_3.thisRepN","trials_3.thisTrialN","trials_3.thisN","trials_3.thisIndex","key_resp_4.keys","key_resp_4.rt","key_resp_6.keys","key_resp_6.rt","key_resp_9.keys","key_resp_9.rt","key_resp_10.keys","key_resp_10.rt","key_resp_11.keys","key_resp_11.rt","key_resp_12.keys","key_resp_12.rt","date","expName","session","participant","X.1","testTime","testType","fan","konfidenz","team","correct","PC"
"1",1,"E_D_01.avi",0,0,0,0,NA,NA,NA,NA,NA,NA,NA,NA,2,9.00349457822,1,2.84419137069,NA,NA,NA,NA,NA,NA,NA,NA,"2013_Mai_25_2309","PostTest",1,1,NA,1,"Ecken","BVB",1,"BVB","Kopf",1
"3",3,"E_D_03.avi",0,2,2,2,NA,NA,NA,NA,NA,NA,NA,NA,2,1.62323451724,1,0.401750222444,NA,NA,NA,NA,NA,NA,NA,NA,"2013_Mai_25_2309","PostTest",1,1,NA,1,"Ecken","BVB",1,"BVB","Kopf",1
"4",4,"E_D_04.avi",0,3,3,3,NA,NA,NA,NA,NA,NA,NA,NA,2,3.66457384947,1,0.719781983464,NA,NA,NA,NA,NA,NA,NA,NA,"2013_Mai_25_2309","PostTest",1,1,NA,1,"Ecken","BVB",1,"BVB","Kopf",1
"5",5,"E_M_05.avi",0,4,4,4,NA,NA,NA,NA,NA,NA,NA,NA,2,1.38910448116,3,2.66058982357,NA,NA,NA,NA,NA,NA,NA,NA,"2013_Mai_25_2309","PostTest",1,1,NA,1,"Ecken","BVB",3,"FCB","Fuss",0
"6",6,"E_M_06.avi",0,5,5,5,NA,NA,NA,NA,NA,NA,NA,NA,2,1.60686120722,3,0.501609562109,NA,NA,NA,NA,NA,NA,NA,NA,"2013_Mai_25_2309","PostTest",1,1,NA,1,"Ecken","BVB",3,"FCB","Kopf",1
"7",7,"E_D_07.avi",0,6,6,6,NA,NA,NA,NA,NA,NA,NA,NA,2,3.7484291998,2,0.602026235178,NA,NA,NA,NA,NA,NA,NA,NA,"2013_Mai_25_2309","PostTest",1,1,NA,1,"Ecken","BVB",2,"BVB","Kopf",1
"8",8,"T_D_01.avi",NA,NA,NA,NA,0,0,0,0,NA,NA,NA,NA,NA,NA,NA,NA,2,4.31739201491,4,1.75679814055,NA,NA,NA,NA,"2013_Mai_25_2309","PostTest",1,1,NA,1,"Tor","BVB",4,"BVB","daneben",1
"9",9,"T_D_02.avi",NA,NA,NA,NA,0,1,1,1,NA,NA,NA,NA,NA,NA,NA,NA,1,2.45961707424,4,0.63582103312,NA,NA,NA,NA,"2013_Mai_25_2309","PostTest",1,1,NA,1,"Tor","BVB",4,"BVB","daneben",0
"10",10,"T_D_03.avi",NA,NA,NA,NA,0,2,2,2,NA,NA,NA,NA,NA,NA,NA,NA,1,2.61028203305,5,0.920327862899,NA,NA,NA,NA,"2013_Mai_25_2309","PostTest",1,1,NA,1,"Tor","BVB",5,"BVB","auf",1
"11",11,"T_M_04.avi",NA,NA,NA,NA,0,3,3,3,NA,NA,NA,NA,NA,NA,NA,NA,2,6.04129435445,3,1.47197674565,NA,NA,NA,NA,"2013_Mai_25_2309","PostTest",1,1,NA,1,"Tor","BVB",3,"FCB","auf",0
"12",12,"T_D_05.avi",NA,NA,NA,NA,0,4,4,4,NA,NA,NA,NA,NA,NA,NA,NA,1,3.26322395723,3,0.435575471184,NA,NA,NA,NA,"2013_Mai_25_2309","PostTest",1,1,NA,1,"Tor","BVB",3,"BVB","auf",1
"13",13,"T_D_06.avi",NA,NA,NA,NA,0,5,5,5,NA,NA,NA,NA,NA,NA,NA,NA,1,4.86985440887,3,1.77355920934,NA,NA,NA,NA,"2013_Mai_25_2309","PostTest",1,1,NA,1,"Tor","BVB",3,"BVB","auf",1
"14",14,"T_M_07.avi",NA,NA,NA,NA,0,6,6,6,NA,NA,NA,NA,NA,NA,NA,NA,1,1.32259239652,5,1.18758222065,NA,NA,NA,NA,"2013_Mai_25_2309","PostTest",1,1,NA,1,"Tor","BVB",5,"FCB","auf",1
"15",15,"T_M_08.avi",NA,NA,NA,NA,0,7,7,7,NA,NA,NA,NA,NA,NA,NA,NA,1,2.35959765836,4,0.318058300706,NA,NA,NA,NA,"2013_Mai_25_2309","PostTest",1,1,NA,1,"Tor","BVB",4,"FCB","daneben",0
"16",16,"T_M_09.avi",NA,NA,NA,NA,0,8,8,8,NA,NA,NA,NA,NA,NA,NA,NA,1,1.07104143124,5,0.501662362116,NA,NA,NA,NA,"2013_Mai_25_2309","PostTest",1,1,NA,1,"Tor","BVB",5,"FCB","auf",1
"17",17,"T_M_10.avi",NA,NA,NA,NA,0,9,9,9,NA,NA,NA,NA,NA,NA,NA,NA,1,5.73989263999,4,0.418103418172,NA,NA,NA,NA,"2013_Mai_25_2309","PostTest",1,1,NA,1,"Tor","BVB",4,"FCB","auf",1
"18",18,"T_M_11.avi",NA,NA,NA,NA,0,10,10,10,NA,NA,NA,NA,NA,NA,NA,NA,1,3.36369287158,5,0.501715441488,NA,NA,NA,NA,"2013_Mai_25_2309","PostTest",1,1,NA,1,"Tor","BVB",5,"FCB","auf",1
"19",19,"T_M_12.avi",NA,NA,NA,NA,0,11,11,11,NA,NA,NA,NA,NA,NA,NA,NA,2,1.59078570042,5,0.634729832982,NA,NA,NA,NA,"2013_Mai_25_2309","PostTest",1,1,NA,1,"Tor","BVB",5,"FCB","auf",0
"20",20,"T_D_13.avi",NA,NA,NA,NA,0,12,12,12,NA,NA,NA,NA,NA,NA,NA,NA,2,2.61004904255,3,0.82006958985,NA,NA,NA,NA,"2013_Mai_25_2309","PostTest",1,1,NA,1,"Tor","BVB",3,"BVB","daneben",1
"21",21,"K_M_01.avi",NA,NA,NA,NA,NA,NA,NA,NA,0,0,0,0,NA,NA,NA,NA,NA,NA,NA,NA,2,4.75260989874,2,1.13725291902,"2013_Mai_25_2309","PostTest",1,1,NA,1,"KritSit","BVB",2,"FCB","Gegner",1
"22",22,"K_D_02.avi",NA,NA,NA,NA,NA,NA,NA,NA,0,1,1,1,NA,NA,NA,NA,NA,NA,NA,NA,1,2.00920675672,4,0.868616542047,"2013_Mai_25_2309","PostTest",1,1,NA,1,"KritSit","BVB",4,"BVB","Gegner",0
"23",23,"K_D_03.avi",NA,NA,NA,NA,NA,NA,NA,NA,0,2,2,2,NA,NA,NA,NA,NA,NA,NA,NA,2,2.62735012411,2,0.602147200273,"2013_Mai_25_2309","PostTest",1,1,NA,1,"KritSit","BVB",2,"BVB","Gegner",1
"24",24,"K_D_04.avi",NA,NA,NA,NA,NA,NA,NA,NA,0,3,3,3,NA,NA,NA,NA,NA,NA,NA,NA,1,2.07509278414,4,0.568860008744,"2013_Mai_25_2309","PostTest",1,1,NA,1,"KritSit","BVB",4,"BVB","Team",1
"25",25,"K_D_05.avi",NA,NA,NA,NA,NA,NA,NA,NA,0,4,4,4,NA,NA,NA,NA,NA,NA,NA,NA,1,3.0121507063,3,0.28420539482,"2013_Mai_25_2309","PostTest",1,1,NA,1,"KritSit","BVB",3,"BVB","Team",1
"26",26,"K_M_07.avi",NA,NA,NA,NA,NA,NA,NA,NA,0,5,5,5,NA,NA,NA,NA,NA,NA,NA,NA,1,3.0283960671,4,0.251097555695,"2013_Mai_25_2309","PostTest",1,1,NA,1,"KritSit","BVB",4,"FCB","Team",1
"27",27,"K_D_08.avi",NA,NA,NA,NA,NA,NA,NA,NA,0,6,6,6,NA,NA,NA,NA,NA,NA,NA,NA,2,1.94103552267,3,0.702689308278,"2013_Mai_25_2309","PostTest",1,1,NA,1,"KritSit","BVB",3,"BVB","Team",0
"28",28,"K_D_09.avi",NA,NA,NA,NA,NA,NA,NA,NA,0,7,7,7,NA,NA,NA,NA,NA,NA,NA,NA,2,3.16187755706,2,1.27159820592,"2013_Mai_25_2309","PostTest",1,1,NA,1,"KritSit","BVB",2,"BVB","Team",0
"29",29,"K_D_10.avi",NA,NA,NA,NA,NA,NA,NA,NA,0,8,8,8,NA,NA,NA,NA,NA,NA,NA,NA,2,1.74067765596,3,0.686148099828,"2013_Mai_25_2309","PostTest",1,1,NA,1,"KritSit","BVB",3,"BVB","Gegner",1
"30",30,"K_D_11.avi",NA,NA,NA,NA,NA,NA,NA,NA,0,9,9,9,NA,NA,NA,NA,NA,NA,NA,NA,1,2.37649505733,4,0.635430760055,"2013_Mai_25_2309","PostTest",1,1,NA,1,"KritSit","BVB",4,"BVB","Team",1
"31",31,"K_D_12.avi",NA,NA,NA,NA,NA,NA,NA,NA,0,10,10,10,NA,NA,NA,NA,NA,NA,NA,NA,2,3.28060689278,4,0.752390597129,"2013_Mai_25_2309","PostTest",1,1,NA,1,"KritSit","BVB",4,"BVB","Team",0
"32",32,"K_M_13.avi",NA,NA,NA,NA,NA,NA,NA,NA,0,11,11,11,NA,NA,NA,NA,NA,NA,NA,NA,1,1.5059916833,5,0.485181496531,"2013_Mai_25_2309","PostTest",1,1,NA,1,"KritSit","BVB",5,"FCB","Gegner",0
"33",33,"K_M_14.avi",NA,NA,NA,NA,NA,NA,NA,NA,0,12,12,12,NA,NA,NA,NA,NA,NA,NA,NA,2,2.25923825514,3,0.318320345183,"2013_Mai_25_2309","PostTest",1,1,NA,1,"KritSit","BVB",3,"FCB","Gegner",1
"34",34,"K_D_15.avi",NA,NA,NA,NA,NA,NA,NA,NA,0,13,13,13,NA,NA,NA,NA,NA,NA,NA,NA,1,2.97857269569,2,1.43919855736,"2013_Mai_25_2309","PostTest",1,1,NA,1,"KritSit","BVB",2,"BVB","Gegner",0
"35",35,"K_D_16.avi",NA,NA,NA,NA,NA,NA,NA,NA,0,14,14,14,NA,NA,NA,NA,NA,NA,NA,NA,1,2.40986577903,3,0.301290806513,"2013_Mai_25_2309","PostTest",1,1,NA,1,"KritSit","BVB",3,"BVB","Team",1
"36",36,"K_D_17.avi",NA,NA,NA,NA,NA,NA,NA,NA,0,15,15,15,NA,NA,NA,NA,NA,NA,NA,NA,1,1.8069670866,4,0.384669839323,"2013_Mai_25_2309","PostTest",1,1,NA,1,"KritSit","BVB",4,"BVB","Gegner",0
"37",37,"K_D_18.avi",NA,NA,NA,NA,NA,NA,NA,NA,0,16,16,16,NA,NA,NA,NA,NA,NA,NA,NA,2,1.89291208799,3,0.367288859338,"2013_Mai_25_2309","PostTest",1,1,NA,1,"KritSit","BVB",3,"BVB","Team",0
"38",38,"K_D_19.avi",NA,NA,NA,NA,NA,NA,NA,NA,0,17,17,17,NA,NA,NA,NA,NA,NA,NA,NA,2,2.44047860831,4,0.384839972678,"2013_Mai_25_2309","PostTest",1,1,NA,1,"KritSit","BVB",4,"BVB","Team",0
"39",39,"K_M_20.avi",NA,NA,NA,NA,NA,NA,NA,NA,0,18,18,18,NA,NA,NA,NA,NA,NA,NA,NA,2,2.17532507623,4,0.318538808703,"2013_Mai_25_2309","PostTest",1,1,NA,1,"KritSit","BVB",4,"FCB","Team",0
"40",40,"K_M_21.avi",NA,NA,NA,NA,NA,NA,NA,NA,0,19,19,19,NA,NA,NA,NA,NA,NA,NA,NA,1,2.96156550623,3,0.369555907245,"2013_Mai_25_2309","PostTest",1,1,NA,1,"KritSit","BVB",3,"FCB","Team",1
"41",41,"K_M_22.avi",NA,NA,NA,NA,NA,NA,NA,NA,0,20,20,20,NA,NA,NA,NA,NA,NA,NA,NA,2,2.5090876075,3,1.3890961002,"2013_Mai_25_2309","PostTest",1,1,NA,1,"KritSit","BVB",3,"FCB","Team",0
"42",42,"K_D_24.avi",NA,NA,NA,NA,NA,NA,NA,NA,0,21,21,21,NA,NA,NA,NA,NA,NA,NA,NA,1,1.907911201,5,0.384258613874,"2013_Mai_25_2309","PostTest",1,1,NA,1,"KritSit","BVB",5,"BVB","Team",1
"43",43,"K_M_23.avi",NA,NA,NA,NA,NA,NA,NA,NA,0,22,22,22,NA,NA,NA,NA,NA,NA,NA,NA,2,3.2964860059,2,2.22185138055,"2013_Mai_25_2309","PostTest",1,1,NA,1,"KritSit","BVB",2,"FCB","Gegner",1
"44",44,"K_M_25.avi",NA,NA,NA,NA,NA,NA,NA,NA,0,23,23,23,NA,NA,NA,NA,NA,NA,NA,NA,1,2.04161283068,3,0.702547111435,"2013_Mai_25_2309","PostTest",1,1,NA,1,"KritSit","BVB",3,"FCB","Team",1
"45",45,"K_D_26.avi",NA,NA,NA,NA,NA,NA,NA,NA,0,24,24,24,NA,NA,NA,NA,NA,NA,NA,NA,2,2.10837746138,3,1.23838001757,"2013_Mai_25_2309","PostTest",1,1,NA,1,"KritSit","BVB",3,"BVB","Gegner",1
"46",46,"K_D_27.avi",NA,NA,NA,NA,NA,NA,NA,NA,0,25,25,25,NA,NA,NA,NA,NA,NA,NA,NA,1,1.45567299755,3,0.702880952747,"2013_Mai_25_2309","PostTest",1,1,NA,1,"KritSit","BVB",3,"BVB","Gegner",0
"47",47,"K_D_28.avi",NA,NA,NA,NA,NA,NA,NA,NA,0,26,26,26,NA,NA,NA,NA,NA,NA,NA,NA,2,2.99561201214,3,0.819703062819,"2013_Mai_25_2309","PostTest",1,1,NA,1,"KritSit","BVB",3,"BVB","Gegner",1
"48",48,"K_M_29.avi",NA,NA,NA,NA,NA,NA,NA,NA,0,27,27,27,NA,NA,NA,NA,NA,NA,NA,NA,2,2.64500627873,1,1.01852721505,"2013_Mai_25_2309","PostTest",1,1,NA,1,"KritSit","BVB",1,"FCB","Team",0
"49",49,"K_M_30.avi",NA,NA,NA,NA,NA,NA,NA,NA,0,28,28,28,NA,NA,NA,NA,NA,NA,NA,NA,1,2.20903578527,3,0.568575335692,"2013_Mai_25_2309","PostTest",1,1,NA,1,"KritSit","BVB",3,"FCB","Team",1
"50",50,"K_M_31.avi",NA,NA,NA,NA,NA,NA,NA,NA,0,29,29,29,NA,NA,NA,NA,NA,NA,NA,NA,2,2.39239372602,3,0.970964745519,"2013_Mai_25_2309","PostTest",1,1,NA,1,"KritSit","BVB",3,"FCB","Gegner",1
"51",51,"K_M_32.avi",NA,NA,NA,NA,NA,NA,NA,NA,0,30,30,30,NA,NA,NA,NA,NA,NA,NA,NA,1,1.77415984434,2,1.69141385288,"2013_Mai_25_2309","PostTest",1,1,NA,1,"KritSit","BVB",2,"FCB","Team",1
"52",52,"K_M_33.avi",NA,NA,NA,NA,NA,NA,NA,NA,0,31,31,31,NA,NA,NA,NA,NA,NA,NA,NA,1,2.37538569846,1,0.351502216064,"2013_Mai_25_2309","PostTest",1,1,NA,1,"KritSit","BVB",1,"FCB","Gegner",0
"53",53,"K_D_34.avi",NA,NA,NA,NA,NA,NA,NA,NA,0,32,32,32,NA,NA,NA,NA,NA,NA,NA,NA,1,1.07108948204,4,1.07070284072,"2013_Mai_25_2309","PostTest",1,1,NA,1,"KritSit","BVB",4,"BVB","Team",1
"54",54,"E_D_01.avi",0,0,0,0,NA,NA,NA,NA,NA,NA,NA,NA,2,3.27392419986,3,2.43851774457,NA,NA,NA,NA,NA,NA,NA,NA,"2013_Mai_25_2304","PostTest",1,10,NA,1,"Ecken","FCB",3,"BVB","Kopf",1
"56",56,"E_D_03.avi",0,2,2,2,NA,NA,NA,NA,NA,NA,NA,NA,2,0.935412182275,2,2.03765730002,NA,NA,NA,NA,NA,NA,NA,NA,"2013_Mai_25_2304","PostTest",1,10,NA,1,"Ecken","FCB",2,"BVB","Kopf",1
"57",57,"E_D_04.avi",0,3,3,3,NA,NA,NA,NA,NA,NA,NA,NA,1,1.53673860784,1,1.7704820026,NA,NA,NA,NA,NA,NA,NA,NA,"2013_Mai_25_2304","PostTest",1,10,NA,1,"Ecken","FCB",1,"BVB","Kopf",0
"58",58,"E_M_05.avi",0,4,4,4,NA,NA,NA,NA,NA,NA,NA,NA,2,0.885314753691,5,1.33639889986,NA,NA,NA,NA,NA,NA,NA,NA,"2013_Mai_25_2304","PostTest",1,10,NA,1,"Ecken","FCB",5,"FCB","Fuss",0
"59",59,"E_M_06.avi",0,5,5,5,NA,NA,NA,NA,NA,NA,NA,NA,2,1.03572800454,5,0.884906042528,NA,NA,NA,NA,NA,NA,NA,NA,"2013_Mai_25_2304","PostTest",1,10,NA,1,"Ecken","FCB",5,"FCB","Kopf",1
"60",60,"E_D_07.avi",0,6,6,6,NA,NA,NA,NA,NA,NA,NA,NA,1,1.25282431147,3,1.7202918248,NA,NA,NA,NA,NA,NA,NA,NA,"2013_Mai_25_2304","PostTest",1,10,NA,1,"Ecken","FCB",3,"BVB","Kopf",0
"61",61,"T_D_01.avi",NA,NA,NA,NA,0,0,0,0,NA,NA,NA,NA,NA,NA,NA,NA,2,2.85652394369,5,0.617713983202,NA,NA,NA,NA,"2013_Mai_25_2304","PostTest",1,10,NA,1,"Tor","FCB",5,"BVB","daneben",1
"62",62,"T_D_02.avi",NA,NA,NA,NA,0,1,1,1,NA,NA,NA,NA,NA,NA,NA,NA,1,0.935478112442,3,0.935242328285,NA,NA,NA,NA,"2013_Mai_25_2304","PostTest",1,10,NA,1,"Tor","FCB",3,"BVB","daneben",0
"63",63,"T_D_03.avi",NA,NA,NA,NA,0,2,2,2,NA,NA,NA,NA,NA,NA,NA,NA,1,1.20261401938,4,1.80380607032,NA,NA,NA,NA,"2013_Mai_25_2304","PostTest",1,10,NA,1,"Tor","FCB",4,"BVB","auf",1
"64",64,"T_M_04.avi",NA,NA,NA,NA,0,3,3,3,NA,NA,NA,NA,NA,NA,NA,NA,2,3.85854068045,3,0.684712163138,NA,NA,NA,NA,"2013_Mai_25_2304","PostTest",1,10,NA,1,"Tor","FCB",3,"FCB","auf",0
"65",65,"T_D_05.avi",NA,NA,NA,NA,0,4,4,4,NA,NA,NA,NA,NA,NA,NA,NA,1,0.735042023497,5,0.972775869559,NA,NA,NA,NA,"2013_Mai_25_2304","PostTest",1,10,NA,1,"Tor","FCB",5,"BVB","auf",1
"66",66,"T_D_06.avi",NA,NA,NA,NA,0,5,5,5,NA,NA,NA,NA,NA,NA,NA,NA,1,1.53666150307,5,0.751561720833,NA,NA,NA,NA,"2013_Mai_25_2304","PostTest",1,10,NA,1,"Tor","FCB",5,"BVB","auf",1
"67",67,"T_M_07.avi",NA,NA,NA,NA,0,6,6,6,NA,NA,NA,NA,NA,NA,NA,NA,1,2.12134782493,5,0.634681782182,NA,NA,NA,NA,"2013_Mai_25_2304","PostTest",1,10,NA,1,"Tor","FCB",5,"FCB","auf",1
"68",68,"T_M_08.avi",NA,NA,NA,NA,0,7,7,7,NA,NA,NA,NA,NA,NA,NA,NA,2,2.72244992031,3,0.751728501807,NA,NA,NA,NA,"2013_Mai_25_2304","PostTest",1,10,NA,1,"Tor","FCB",3,"FCB","daneben",1
"69",69,"T_M_09.avi",NA,NA,NA,NA,0,8,8,8,NA,NA,NA,NA,NA,NA,NA,NA,1,1.38641279827,5,1.55331892741,NA,NA,NA,NA,"2013_Mai_25_2304","PostTest",1,10,NA,1,"Tor","FCB",5,"FCB","auf",1
"70",70,"T_M_10.avi",NA,NA,NA,NA,0,9,9,9,NA,NA,NA,NA,NA,NA,NA,NA,1,2.42197737422,4,1.26940518977,NA,NA,NA,NA,"2013_Mai_25_2304","PostTest",1,10,NA,1,"Tor","FCB",4,"FCB","auf",1
"71",71,"T_M_11.avi",NA,NA,NA,NA,0,10,10,10,NA,NA,NA,NA,NA,NA,NA,NA,1,4.04207378312,5,0.434329782137,NA,NA,NA,NA,"2013_Mai_25_2304","PostTest",1,10,NA,1,"Tor","FCB",5,"FCB","auf",1
"72",72,"T_M_12.avi",NA,NA,NA,NA,0,11,11,11,NA,NA,NA,NA,NA,NA,NA,NA,2,1.77061246611,5,0.93519343939,NA,NA,NA,NA,"2013_Mai_25_2304","PostTest",1,10,NA,1,"Tor","FCB",5,"FCB","auf",0
"73",73,"T_D_13.avi",NA,NA,NA,NA,0,12,12,12,NA,NA,NA,NA,NA,NA,NA,NA,1,2.37188245992,3,1.15239367015,NA,NA,NA,NA,"2013_Mai_25_2304","PostTest",1,10,NA,1,"Tor","FCB",3,"BVB","daneben",0
"74",74,"K_M_01.avi",NA,NA,NA,NA,NA,NA,NA,NA,0,0,0,0,NA,NA,NA,NA,NA,NA,NA,NA,1,2.45542687688,5,0.935270823526,"2013_Mai_25_2304","PostTest",1,10,NA,1,"KritSit","FCB",5,"FCB","Gegner",0
"75",75,"K_D_02.avi",NA,NA,NA,NA,NA,NA,NA,NA,0,1,1,1,NA,NA,NA,NA,NA,NA,NA,NA,1,2.08799777625,5,1.41938570405,"2013_Mai_25_2304","PostTest",1,10,NA,1,"KritSit","FCB",5,"BVB","Gegner",0
"76",76,"K_D_03.avi",NA,NA,NA,NA,NA,NA,NA,NA,0,2,2,2,NA,NA,NA,NA,NA,NA,NA,NA,1,1.0857391093,5,0.367591970488,"2013_Mai_25_2304","PostTest",1,10,NA,1,"KritSit","FCB",5,"BVB","Gegner",0
"77",77,"K_D_04.avi",NA,NA,NA,NA,NA,NA,NA,NA,0,3,3,3,NA,NA,NA,NA,NA,NA,NA,NA,2,1.31960961519,3,0.784980772696,"2013_Mai_25_2304","PostTest",1,10,NA,1,"KritSit","FCB",3,"BVB","Team",0
"78",78,"K_D_05.avi",NA,NA,NA,NA,NA,NA,NA,NA,0,4,4,4,NA,NA,NA,NA,NA,NA,NA,NA,1,1.0022743114,5,0.851589238297,"2013_Mai_25_2304","PostTest",1,10,NA,1,"KritSit","FCB",5,"BVB","Team",1
"79",79,"K_M_07.avi",NA,NA,NA,NA,NA,NA,NA,NA,0,5,5,5,NA,NA,NA,NA,NA,NA,NA,NA,1,0.868638332526,5,0.66803993245,"2013_Mai_25_2304","PostTest",1,10,NA,1,"KritSit","FCB",5,"FCB","Team",1
"80",80,"K_D_08.avi",NA,NA,NA,NA,NA,NA,NA,NA,0,6,6,6,NA,NA,NA,NA,NA,NA,NA,NA,1,1.48663531259,5,0.901826908169,"2013_Mai_25_2304","PostTest",1,10,NA,1,"KritSit","FCB",5,"BVB","Team",1
"81",81,"K_D_09.avi",NA,NA,NA,NA,NA,NA,NA,NA,0,7,7,7,NA,NA,NA,NA,NA,NA,NA,NA,1,1.35371087666,4,1.08511193462,"2013_Mai_25_2304","PostTest",1,10,NA,1,"KritSit","FCB",4,"BVB","Team",1
"82",82,"K_D_10.avi",NA,NA,NA,NA,NA,NA,NA,NA,0,8,8,8,NA,NA,NA,NA,NA,NA,NA,NA,2,1.11913273894,5,1.06894535479,"2013_Mai_25_2304","PostTest",1,10,NA,1,"KritSit","FCB",5,"BVB","Gegner",1
"83",83,"K_D_11.avi",NA,NA,NA,NA,NA,NA,NA,NA,0,9,9,9,NA,NA,NA,NA,NA,NA,NA,NA,1,0.868508986477,5,0.36730422442,"2013_Mai_25_2304","PostTest",1,10,NA,1,"KritSit","FCB",5,"BVB","Team",1
"84",84,"K_D_12.avi",NA,NA,NA,NA,NA,NA,NA,NA,0,10,10,10,NA,NA,NA,NA,NA,NA,NA,NA,1,1.38637676017,2,1.35300715594,"2013_Mai_25_2304","PostTest",1,10,NA,1,"KritSit","FCB",2,"BVB","Team",1
"85",85,"K_M_13.avi",NA,NA,NA,NA,NA,NA,NA,NA,0,11,11,11,NA,NA,NA,NA,NA,NA,NA,NA,1,0.534516258351,5,0.417459202217,"2013_Mai_25_2304","PostTest",1,10,NA,1,"KritSit","FCB",5,"FCB","Gegner",0
"86",86,"K_M_14.avi",NA,NA,NA,NA,NA,NA,NA,NA,0,12,12,12,NA,NA,NA,NA,NA,NA,NA,NA,1,0.501098603314,5,0.450911777894,"2013_Mai_25_2304","PostTest",1,10,NA,1,"KritSit","FCB",5,"FCB","Gegner",0
"87",87,"K_D_15.avi",NA,NA,NA,NA,NA,NA,NA,NA,0,13,13,13,NA,NA,NA,NA,NA,NA,NA,NA,1,1.05232899712,4,0.985437814024,"2013_Mai_25_2304","PostTest",1,10,NA,1,"KritSit","FCB",4,"BVB","Gegner",0
"88",88,"K_D_16.avi",NA,NA,NA,NA,NA,NA,NA,NA,0,14,14,14,NA,NA,NA,NA,NA,NA,NA,NA,1,2.23805930642,5,0.918683240468,"2013_Mai_25_2304","PostTest",1,10,NA,1,"KritSit","FCB",5,"BVB","Team",1
"89",89,"K_D_17.avi",NA,NA,NA,NA,NA,NA,NA,NA,0,15,15,15,NA,NA,NA,NA,NA,NA,NA,NA,1,0.551223968409,5,0.667880414969,"2013_Mai_25_2304","PostTest",1,10,NA,1,"KritSit","FCB",5,"BVB","Gegner",0
"90",90,"K_D_18.avi",NA,NA,NA,NA,NA,NA,NA,NA,0,16,16,16,NA,NA,NA,NA,NA,NA,NA,NA,2,3.25717877551,5,0.68470517901,"2013_Mai_25_2304","PostTest",1,10,NA,1,"KritSit","FCB",5,"BVB","Team",0
"91",91,"K_D_19.avi",NA,NA,NA,NA,NA,NA,NA,NA,0,17,17,17,NA,NA,NA,NA,NA,NA,NA,NA,1,0.751677936721,5,1.6201084216,"2013_Mai_25_2304","PostTest",1,10,NA,1,"KritSit","FCB",5,"BVB","Team",1
"92",92,"K_M_20.avi",NA,NA,NA,NA,NA,NA,NA,NA,0,18,18,18,NA,NA,NA,NA,NA,NA,NA,NA,1,1.18580517915,5,0.300542666736,"2013_Mai_25_2304","PostTest",1,10,NA,1,"KritSit","FCB",5,"FCB","Team",1
"93",93,"K_M_21.avi",NA,NA,NA,NA,NA,NA,NA,NA,0,19,19,19,NA,NA,NA,NA,NA,NA,NA,NA,1,0.634782074258,5,0.41747847841,"2013_Mai_25_2304","PostTest",1,10,NA,1,"KritSit","FCB",5,"FCB","Team",1
"94",94,"K_M_22.avi",NA,NA,NA,NA,NA,NA,NA,NA,0,20,20,20,NA,NA,NA,NA,NA,NA,NA,NA,1,0.434345705949,5,0.801635403382,"2013_Mai_25_2304","PostTest",1,10,NA,1,"KritSit","FCB",5,"FCB","Team",1
"95",95,"K_D_24.avi",NA,NA,NA,NA,NA,NA,NA,NA,0,21,21,21,NA,NA,NA,NA,NA,NA,NA,NA,1,0.835143293352,5,0.500802755657,"2013_Mai_25_2304","PostTest",1,10,NA,1,"KritSit","FCB",5,"BVB","Team",1
"96",96,"K_M_23.avi",NA,NA,NA,NA,NA,NA,NA,NA,0,22,22,22,NA,NA,NA,NA,NA,NA,NA,NA,1,1.00222793679,5,0.217032052956,"2013_Mai_25_2304","PostTest",1,10,NA,1,"KritSit","FCB",5,"FCB","Gegner",0
"97",97,"K_M_25.avi",NA,NA,NA,NA,NA,NA,NA,NA,0,23,23,23,NA,NA,NA,NA,NA,NA,NA,NA,1,1.55345944806,2,0.417451100629,"2013_Mai_25_2304","PostTest",1,10,NA,1,"KritSit","FCB",2,"FCB","Team",1
"98",98,"K_D_26.avi",NA,NA,NA,NA,NA,NA,NA,NA,0,24,24,24,NA,NA,NA,NA,NA,NA,NA,NA,2,1.15259146065,3,1.65354395601,"2013_Mai_25_2304","PostTest",1,10,NA,1,"KritSit","FCB",3,"BVB","Gegner",1
"99",99,"K_D_27.avi",NA,NA,NA,NA,NA,NA,NA,NA,0,25,25,25,NA,NA,NA,NA,NA,NA,NA,NA,1,1.00218659075,5,1.20254892731,"2013_Mai_25_2304","PostTest",1,10,NA,1,"KritSit","FCB",5,"BVB","Gegner",0
"100",100,"K_D_28.avi",NA,NA,NA,NA,NA,NA,NA,NA,0,26,26,26,NA,NA,NA,NA,NA,NA,NA,NA,2,1.55343262901,3,0.918582110296,"2013_Mai_25_2304","PostTest",1,10,NA,1,"KritSit","FCB",3,"BVB","Gegner",1
"101",101,"K_M_29.avi",NA,NA,NA,NA,NA,NA,NA,NA,0,27,27,27,NA,NA,NA,NA,NA,NA,NA,NA,2,1.83737737617,2,0.768302395975,"2013_Mai_25_2304","PostTest",1,10,NA,1,"KritSit","FCB",2,"FCB","Team",0
"102",102,"K_M_30.avi",NA,NA,NA,NA,NA,NA,NA,NA,0,28,28,28,NA,NA,NA,NA,NA,NA,NA,NA,1,2.43874877952,2,0.333939928119,"2013_Mai_25_2304","PostTest",1,10,NA,1,"KritSit","FCB",2,"FCB","Team",1
"103",103,"K_M_31.avi",NA,NA,NA,NA,NA,NA,NA,NA,0,29,29,29,NA,NA,NA,NA,NA,NA,NA,NA,1,1.11918051037,4,0.634581769471,"2013_Mai_25_2304","PostTest",1,10,NA,1,"KritSit","FCB",4,"FCB","Gegner",0
"104",104,"K_M_32.avi",NA,NA,NA,NA,NA,NA,NA,NA,0,30,30,30,NA,NA,NA,NA,NA,NA,NA,NA,1,0.451018495367,5,0.801712508154,"2013_Mai_25_2304","PostTest",1,10,NA,1,"KritSit","FCB",5,"FCB","Team",1
"105",105,"K_M_33.avi",NA,NA,NA,NA,NA,NA,NA,NA,0,31,31,31,NA,NA,NA,NA,NA,NA,NA,NA,2,2.58899133828,2,0.651400108114,"2013_Mai_25_2304","PostTest",1,10,NA,1,"KritSit","FCB",2,"FCB","Gegner",1
"106",106,"K_D_34.avi",NA,NA,NA,NA,NA,NA,NA,NA,0,32,32,32,NA,NA,NA,NA,NA,NA,NA,NA,2,0.918708383328,5,1.45311820357,"2013_Mai_25_2304","PostTest",1,10,NA,1,"KritSit","FCB",5,"BVB","Team",0
"107",107,"E_D_01.avi",0,0,0,0,NA,NA,NA,NA,NA,NA,NA,NA,2,4.32607133029,2,3.47412841576,NA,NA,NA,NA,NA,NA,NA,NA,"2013_Mai_25_2305","PostTest",1,11,NA,1,"Ecken","FCB",2,"BVB","Kopf",1
"109",109,"E_D_03.avi",0,2,2,2,NA,NA,NA,NA,NA,NA,NA,NA,2,2.69081433534,4,1.81894458653,NA,NA,NA,NA,NA,NA,NA,NA,"2013_Mai_25_2305","PostTest",1,11,NA,1,"Ecken","FCB",4,"BVB","Kopf",1
"110",110,"E_D_04.avi",0,3,3,3,NA,NA,NA,NA,NA,NA,NA,NA,1,3.25737684538,3,2.95610894681,NA,NA,NA,NA,NA,NA,NA,NA,"2013_Mai_25_2305","PostTest",1,11,NA,1,"Ecken","FCB",3,"BVB","Kopf",0
"111",111,"E_M_05.avi",0,4,4,4,NA,NA,NA,NA,NA,NA,NA,NA,1,1.78712378249,5,3.30729799458,NA,NA,NA,NA,NA,NA,NA,NA,"2013_Mai_25_2305","PostTest",1,11,NA,1,"Ecken","FCB",5,"FCB","Fuss",1
"112",112,"E_M_06.avi",0,5,5,5,NA,NA,NA,NA,NA,NA,NA,NA,2,1.52002112,4,2.18787499529,NA,NA,NA,NA,NA,NA,NA,NA,"2013_Mai_25_2305","PostTest",1,11,NA,1,"Ecken","FCB",4,"FCB","Kopf",1
"113",113,"E_D_07.avi",0,6,6,6,NA,NA,NA,NA,NA,NA,NA,NA,2,3.34062457659,4,1.87064920262,NA,NA,NA,NA,NA,NA,NA,NA,"2013_Mai_25_2305","PostTest",1,11,NA,1,"Ecken","FCB",4,"BVB","Kopf",1
"114",114,"T_D_01.avi",NA,NA,NA,NA,0,0,0,0,NA,NA,NA,NA,NA,NA,NA,NA,1,16.4025452956,4,1.77032136766,NA,NA,NA,NA,"2013_Mai_25_2305","PostTest",1,11,NA,1,"Tor","FCB",4,"BVB","daneben",0
"115",115,"T_D_02.avi",NA,NA,NA,NA,0,1,1,1,NA,NA,NA,NA,NA,NA,NA,NA,2,1.93765604288,5,1.21922758339,NA,NA,NA,NA,"2013_Mai_25_2305","PostTest",1,11,NA,1,"Tor","FCB",5,"BVB","daneben",1
"116",116,"T_D_03.avi",NA,NA,NA,NA,0,2,2,2,NA,NA,NA,NA,NA,NA,NA,NA,1,1.18599151568,5,0.918558364261,NA,NA,NA,NA,"2013_Mai_25_2305","PostTest",1,11,NA,1,"Tor","FCB",5,"BVB","auf",1
"117",117,"T_M_04.avi",NA,NA,NA,NA,0,3,3,3,NA,NA,NA,NA,NA,NA,NA,NA,1,8.75255011461,4,8.00046709847,NA,NA,NA,NA,"2013_Mai_25_2305","PostTest",1,11,NA,1,"Tor","FCB",4,"FCB","auf",1
"118",118,"T_D_05.avi",NA,NA,NA,NA,0,4,4,4,NA,NA,NA,NA,NA,NA,NA,NA,1,1.11912715164,5,0.651272438257,NA,NA,NA,NA,"2013_Mai_25_2305","PostTest",1,11,NA,1,"Tor","FCB",5,"BVB","auf",1
"119",119,"T_D_06.avi",NA,NA,NA,NA,0,5,5,5,NA,NA,NA,NA,NA,NA,NA,NA,1,1.33619133158,5,2.52209317106,NA,NA,NA,NA,"2013_Mai_25_2305","PostTest",1,11,NA,1,"Tor","FCB",5,"BVB","auf",1
"120",120,"T_M_07.avi",NA,NA,NA,NA,0,6,6,6,NA,NA,NA,NA,NA,NA,NA,NA,1,2.12143582494,5,0.484150639257,NA,NA,NA,NA,"2013_Mai_25_2305","PostTest",1,11,NA,1,"Tor","FCB",5,"FCB","auf",1
"121",121,"T_M_08.avi",NA,NA,NA,NA,0,7,7,7,NA,NA,NA,NA,NA,NA,NA,NA,2,6.43077234676,5,1.18571242993,NA,NA,NA,NA,"2013_Mai_25_2305","PostTest",1,11,NA,1,"Tor","FCB",5,"FCB","daneben",1
"122",122,"T_M_09.avi",NA,NA,NA,NA,0,8,8,8,NA,NA,NA,NA,NA,NA,NA,NA,1,8.3347833314,5,2.62240089173,NA,NA,NA,NA,"2013_Mai_25_2305","PostTest",1,11,NA,1,"Tor","FCB",5,"FCB","auf",1
"123",123,"T_M_10.avi",NA,NA,NA,NA,0,9,9,9,NA,NA,NA,NA,NA,NA,NA,NA,1,2.48870317317,5,1.01886468811,NA,NA,NA,NA,"2013_Mai_25_2305","PostTest",1,11,NA,1,"Tor","FCB",5,"FCB","auf",1
"124",124,"T_M_11.avi",NA,NA,NA,NA,0,10,10,10,NA,NA,NA,NA,NA,NA,NA,NA,1,1.68704597931,5,0.851724730378,NA,NA,NA,NA,"2013_Mai_25_2305","PostTest",1,11,NA,1,"Tor","FCB",5,"FCB","auf",1
"125",125,"T_M_12.avi",NA,NA,NA,NA,0,11,11,11,NA,NA,NA,NA,NA,NA,NA,NA,1,9.62103284077,2,3.44078479248,NA,NA,NA,NA,"2013_Mai_25_2305","PostTest",1,11,NA,1,"Tor","FCB",2,"FCB","auf",1
"126",126,"T_D_13.avi",NA,NA,NA,NA,0,12,12,12,NA,NA,NA,NA,NA,NA,NA,NA,2,2.8777101559,5,2.03279662639,NA,NA,NA,NA,"2013_Mai_25_2305","PostTest",1,11,NA,1,"Tor","FCB",5,"BVB","daneben",1
"127",127,"K_M_01.avi",NA,NA,NA,NA,NA,NA,NA,NA,0,0,0,0,NA,NA,NA,NA,NA,NA,NA,NA,1,3.80834910582,4,2.72249936794,"2013_Mai_25_2305","PostTest",1,11,NA,1,"KritSit","FCB",4,"FCB","Gegner",0
"128",128,"K_D_02.avi",NA,NA,NA,NA,NA,NA,NA,NA,0,1,1,1,NA,NA,NA,NA,NA,NA,NA,NA,2,4.54328664677,2,1.68692222056,"2013_Mai_25_2305","PostTest",1,11,NA,1,"KritSit","FCB",2,"BVB","Gegner",1
"129",129,"K_D_03.avi",NA,NA,NA,NA,NA,NA,NA,NA,0,2,2,2,NA,NA,NA,NA,NA,NA,NA,NA,2,3.156901785,4,2.10461413392,"2013_Mai_25_2305","PostTest",1,11,NA,1,"KritSit","FCB",4,"BVB","Gegner",1
"130",130,"K_D_04.avi",NA,NA,NA,NA,NA,NA,NA,NA,0,3,3,3,NA,NA,NA,NA,NA,NA,NA,NA,1,3.39058176388,2,0.885305814007,"2013_Mai_25_2305","PostTest",1,11,NA,1,"KritSit","FCB",2,"BVB","Team",1
"131",131,"K_D_05.avi",NA,NA,NA,NA,NA,NA,NA,NA,0,4,4,4,NA,NA,NA,NA,NA,NA,NA,NA,1,1.57009312636,5,1.10229568283,"2013_Mai_25_2305","PostTest",1,11,NA,1,"KritSit","FCB",5,"BVB","Team",1
"132",132,"K_M_07.avi",NA,NA,NA,NA,NA,NA,NA,NA,0,5,5,5,NA,NA,NA,NA,NA,NA,NA,NA,1,1.6198874438,5,0.634597972647,"2013_Mai_25_2305","PostTest",1,11,NA,1,"KritSit","FCB",5,"FCB","Team",1
"133",133,"K_D_08.avi",NA,NA,NA,NA,NA,NA,NA,NA,0,6,6,6,NA,NA,NA,NA,NA,NA,NA,NA,1,2.08840536996,5,0.433565718548,"2013_Mai_25_2305","PostTest",1,11,NA,1,"KritSit","FCB",5,"BVB","Team",1
"134",134,"K_D_09.avi",NA,NA,NA,NA,NA,NA,NA,NA,0,7,7,7,NA,NA,NA,NA,NA,NA,NA,NA,1,2.63909435417,4,1.11884136112,"2013_Mai_25_2305","PostTest",1,11,NA,1,"KritSit","FCB",4,"BVB","Team",1
"135",135,"K_D_10.avi",NA,NA,NA,NA,NA,NA,NA,NA,0,8,8,8,NA,NA,NA,NA,NA,NA,NA,NA,2,3.6914633005,5,2.05436417198,"2013_Mai_25_2305","PostTest",1,11,NA,1,"KritSit","FCB",5,"BVB","Gegner",1
"136",136,"K_D_11.avi",NA,NA,NA,NA,NA,NA,NA,NA,0,9,9,9,NA,NA,NA,NA,NA,NA,NA,NA,1,1.3194942374,5,0.384070880517,"2013_Mai_25_2305","PostTest",1,11,NA,1,"KritSit","FCB",5,"BVB","Team",1
"137",137,"K_D_12.avi",NA,NA,NA,NA,NA,NA,NA,NA,0,10,10,10,NA,NA,NA,NA,NA,NA,NA,NA,1,1.3028837464,5,0.334002505905,"2013_Mai_25_2305","PostTest",1,11,NA,1,"KritSit","FCB",5,"BVB","Team",1
"138",138,"K_M_13.avi",NA,NA,NA,NA,NA,NA,NA,NA,0,11,11,11,NA,NA,NA,NA,NA,NA,NA,NA,1,1.15255374636,5,0.333918417006,"2013_Mai_25_2305","PostTest",1,11,NA,1,"KritSit","FCB",5,"FCB","Gegner",0
"139",139,"K_M_14.avi",NA,NA,NA,NA,NA,NA,NA,NA,0,12,12,12,NA,NA,NA,NA,NA,NA,NA,NA,2,3.67491203491,4,4.32580733026,"2013_Mai_25_2305","PostTest",1,11,NA,1,"KritSit","FCB",4,"FCB","Gegner",1
"140",140,"K_D_15.avi",NA,NA,NA,NA,NA,NA,NA,NA,0,13,13,13,NA,NA,NA,NA,NA,NA,NA,NA,2,3.99194562437,4,0.952117098682,"2013_Mai_25_2305","PostTest",1,11,NA,1,"KritSit","FCB",4,"BVB","Gegner",1
"141",141,"K_D_16.avi",NA,NA,NA,NA,NA,NA,NA,NA,0,14,14,14,NA,NA,NA,NA,NA,NA,NA,NA,1,1.62019530415,5,1.06897161511,"2013_Mai_25_2305","PostTest",1,11,NA,1,"KritSit","FCB",5,"BVB","Team",1
"142",142,"K_D_17.avi",NA,NA,NA,NA,NA,NA,NA,NA,0,15,15,15,NA,NA,NA,NA,NA,NA,NA,NA,1,0.567776910194,5,0.634790175846,"2013_Mai_25_2305","PostTest",1,11,NA,1,"KritSit","FCB",5,"BVB","Gegner",0
"143",143,"K_D_18.avi",NA,NA,NA,NA,NA,NA,NA,NA,0,16,16,16,NA,NA,NA,NA,NA,NA,NA,NA,2,3.09007290033,4,1.30274378448,"2013_Mai_25_2305","PostTest",1,11,NA,1,"KritSit","FCB",4,"BVB","Team",0
"144",144,"K_D_19.avi",NA,NA,NA,NA,NA,NA,NA,NA,0,17,17,17,NA,NA,NA,NA,NA,NA,NA,NA,1,1.45318804485,5,1.36959809138,"2013_Mai_25_2305","PostTest",1,11,NA,1,"KritSit","FCB",5,"BVB","Team",1
"145",145,"K_M_20.avi",NA,NA,NA,NA,NA,NA,NA,NA,0,18,18,18,NA,NA,NA,NA,NA,NA,NA,NA,1,1.13658663322,5,0.383406829639,"2013_Mai_25_2305","PostTest",1,11,NA,1,"KritSit","FCB",5,"FCB","Team",1
"146",146,"K_M_21.avi",NA,NA,NA,NA,NA,NA,NA,NA,0,19,19,19,NA,NA,NA,NA,NA,NA,NA,NA,1,0.901990895491,5,0.634650772654,"2013_Mai_25_2305","PostTest",1,11,NA,1,"KritSit","FCB",5,"FCB","Team",1
"147",147,"K_M_22.avi",NA,NA,NA,NA,NA,NA,NA,NA,0,20,20,20,NA,NA,NA,NA,NA,NA,NA,NA,1,1.33621144587,5,0.484285013877,"2013_Mai_25_2305","PostTest",1,11,NA,1,"KritSit","FCB",5,"FCB","Team",1
"148",148,"K_D_24.avi",NA,NA,NA,NA,NA,NA,NA,NA,0,21,21,21,NA,NA,NA,NA,NA,NA,NA,NA,1,1.25268602574,5,0.901841155789,"2013_Mai_25_2305","PostTest",1,11,NA,1,"KritSit","FCB",5,"BVB","Team",1
"149",149,"K_M_23.avi",NA,NA,NA,NA,NA,NA,NA,NA,0,22,22,22,NA,NA,NA,NA,NA,NA,NA,NA,1,6.06328010962,3,2.32149952019,"2013_Mai_25_2305","PostTest",1,11,NA,1,"KritSit","FCB",3,"FCB","Gegner",0
"150",150,"K_M_25.avi",NA,NA,NA,NA,NA,NA,NA,NA,0,23,23,23,NA,NA,NA,NA,NA,NA,NA,NA,2,10.2891230589,3,9.80464053392,"2013_Mai_25_2305","PostTest",1,11,NA,1,"KritSit","FCB",3,"FCB","Team",0
"151",151,"K_D_26.avi",NA,NA,NA,NA,NA,NA,NA,NA,0,24,24,24,NA,NA,NA,NA,NA,NA,NA,NA,2,13.0452280946,5,3.08988963681,"2013_Mai_25_2305","PostTest",1,11,NA,1,"KritSit","FCB",5,"BVB","Gegner",1
"152",152,"K_D_27.avi",NA,NA,NA,NA,NA,NA,NA,NA,0,25,25,25,NA,NA,NA,NA,NA,NA,NA,NA,1,7.6833262328,3,0.985578334677,"2013_Mai_25_2305","PostTest",1,11,NA,1,"KritSit","FCB",3,"BVB","Gegner",0
"153",153,"K_D_28.avi",NA,NA,NA,NA,NA,NA,NA,NA,0,26,26,26,NA,NA,NA,NA,NA,NA,NA,NA,2,6.91500232571,4,1.62019921526,"2013_Mai_25_2305","PostTest",1,11,NA,1,"KritSit","FCB",4,"BVB","Gegner",1
"154",154,"K_M_29.avi",NA,NA,NA,NA,NA,NA,NA,NA,0,27,27,27,NA,NA,NA,NA,NA,NA,NA,NA,2,2.70593581028,4,0.868517646796,"2013_Mai_25_2305","PostTest",1,11,NA,1,"KritSit","FCB",4,"FCB","Team",0
"155",155,"K_M_30.avi",NA,NA,NA,NA,NA,NA,NA,NA,0,28,28,28,NA,NA,NA,NA,NA,NA,NA,NA,2,3.70796316292,4,0.751701124026,"2013_Mai_25_2305","PostTest",1,11,NA,1,"KritSit","FCB",4,"FCB","Team",0
"156",156,"K_M_31.avi",NA,NA,NA,NA,NA,NA,NA,NA,0,29,29,29,NA,NA,NA,NA,NA,NA,NA,NA,1,3.84169580212,5,0.751601670045,"2013_Mai_25_2305","PostTest",1,11,NA,1,"KritSit","FCB",5,"FCB","Gegner",0
"157",157,"K_M_32.avi",NA,NA,NA,NA,NA,NA,NA,NA,0,30,30,30,NA,NA,NA,NA,NA,NA,NA,NA,1,1.03571403628,5,0.367348643473,"2013_Mai_25_2305","PostTest",1,11,NA,1,"KritSit","FCB",5,"FCB","Team",1
"158",158,"K_M_33.avi",NA,NA,NA,NA,NA,NA,NA,NA,0,31,31,31,NA,NA,NA,NA,NA,NA,NA,NA,1,3.40739423586,4,1.77044987561,"2013_Mai_25_2305","PostTest",1,11,NA,1,"KritSit","FCB",4,"FCB","Gegner",0
"159",159,"K_D_34.avi",NA,NA,NA,NA,NA,NA,NA,NA,0,32,32,32,NA,NA,NA,NA,NA,NA,NA,NA,1,1.30278540988,5,0.968468897583,"2013_Mai_25_2305","PostTest",1,11,NA,1,"KritSit","FCB",5,"BVB","Team",1
"160",160,"E_D_01.avi",0,0,0,0,NA,NA,NA,NA,NA,NA,NA,NA,2,8.30143356209,2,3.82473833965,NA,NA,NA,NA,NA,NA,NA,NA,"2013_Mai_25_2305","PostTest",1,12,NA,1,"Ecken","FCB",2,"BVB","Kopf",1
"162",162,"E_D_03.avi",0,2,2,2,NA,NA,NA,NA,NA,NA,NA,NA,2,1.436502684,2,0.868373215032,NA,NA,NA,NA,NA,NA,NA,NA,"2013_Mai_25_2305","PostTest",1,12,NA,1,"Ecken","FCB",2,"BVB","Kopf",1
"163",163,"E_D_04.avi",0,3,3,3,NA,NA,NA,NA,NA,NA,NA,NA,2,1.21933541833,2,0.901862108173,NA,NA,NA,NA,NA,NA,NA,NA,"2013_Mai_25_2305","PostTest",1,12,NA,1,"Ecken","FCB",2,"BVB","Kopf",1
"164",164,"E_M_05.avi",0,4,4,4,NA,NA,NA,NA,NA,NA,NA,NA,1,1.03748074127,1,1.13379549635,NA,NA,NA,NA,NA,NA,NA,NA,"2013_Mai_25_2305","PostTest",1,12,NA,1,"Ecken","FCB",1,"FCB","Fuss",1
"165",165,"E_M_06.avi",0,5,5,5,NA,NA,NA,NA,NA,NA,NA,NA,2,5.11093868075,2,0.802061155817,NA,NA,NA,NA,NA,NA,NA,NA,"2013_Mai_25_2305","PostTest",1,12,NA,1,"Ecken","FCB",2,"FCB","Kopf",1
"166",166,"E_D_07.avi",0,6,6,6,NA,NA,NA,NA,NA,NA,NA,NA,2,2.45554784197,2,1.01844536107,NA,NA,NA,NA,NA,NA,NA,NA,"2013_Mai_25_2305","PostTest",1,12,NA,1,"Ecken","FCB",2,"BVB","Kopf",1
"167",167,"T_D_01.avi",NA,NA,NA,NA,0,0,0,0,NA,NA,NA,NA,NA,NA,NA,NA,2,7.64982365077,2,0.968817265882,NA,NA,NA,NA,"2013_Mai_25_2305","PostTest",1,12,NA,1,"Tor","FCB",2,"BVB","daneben",1
"168",168,"T_D_02.avi",NA,NA,NA,NA,0,1,1,1,NA,NA,NA,NA,NA,NA,NA,NA,1,3.87509250477,1,0.584875452048,NA,NA,NA,NA,"2013_Mai_25_2305","PostTest",1,12,NA,1,"Tor","FCB",1,"BVB","daneben",0
"169",169,"T_D_03.avi",NA,NA,NA,NA,0,2,2,2,NA,NA,NA,NA,NA,NA,NA,NA,1,1.98773531273,2,0.667926510213,NA,NA,NA,NA,"2013_Mai_25_2305","PostTest",1,12,NA,1,"Tor","FCB",2,"BVB","auf",1
"170",170,"T_M_04.avi",NA,NA,NA,NA,0,3,3,3,NA,NA,NA,NA,NA,NA,NA,NA,1,2.55559575309,2,1.06885009128,NA,NA,NA,NA,"2013_Mai_25_2305","PostTest",1,12,NA,1,"Tor","FCB",2,"FCB","auf",1
"171",171,"T_D_05.avi",NA,NA,NA,NA,0,4,4,4,NA,NA,NA,NA,NA,NA,NA,NA,1,1.46991810412,4,3.65788473116,NA,NA,NA,NA,"2013_Mai_25_2305","PostTest",1,12,NA,1,"Tor","FCB",4,"BVB","auf",1
"172",172,"T_D_06.avi",NA,NA,NA,NA,0,5,5,5,NA,NA,NA,NA,NA,NA,NA,NA,1,2.07125067571,4,1.60327639407,NA,NA,NA,NA,"2013_Mai_25_2305","PostTest",1,12,NA,1,"Tor","FCB",4,"BVB","auf",1
"173",173,"T_M_07.avi",NA,NA,NA,NA,0,6,6,6,NA,NA,NA,NA,NA,NA,NA,NA,1,2.42201341232,3,1.18581411883,NA,NA,NA,NA,"2013_Mai_25_2305","PostTest",1,12,NA,1,"Tor","FCB",3,"FCB","auf",1
"174",174,"T_M_08.avi",NA,NA,NA,NA,0,7,7,7,NA,NA,NA,NA,NA,NA,NA,NA,2,9.32032199623,2,1.41960221201,NA,NA,NA,NA,"2013_Mai_25_2305","PostTest",1,12,NA,1,"Tor","FCB",2,"FCB","daneben",1
"175",175,"T_M_09.avi",NA,NA,NA,NA,0,8,8,8,NA,NA,NA,NA,NA,NA,NA,NA,1,2.48856768109,2,1.5869131412,NA,NA,NA,NA,"2013_Mai_25_2305","PostTest",1,12,NA,1,"Tor","FCB",2,"FCB","auf",1
"176",176,"T_M_10.avi",NA,NA,NA,NA,0,9,9,9,NA,NA,NA,NA,NA,NA,NA,NA,2,4.3927149959,1,1.13582871566,NA,NA,NA,NA,"2013_Mai_25_2305","PostTest",1,12,NA,1,"Tor","FCB",1,"FCB","auf",0
"177",177,"T_M_11.avi",NA,NA,NA,NA,0,10,10,10,NA,NA,NA,NA,NA,NA,NA,NA,2,3.15702219137,1,0.951848908171,NA,NA,NA,NA,"2013_Mai_25_2305","PostTest",1,12,NA,1,"Tor","FCB",1,"FCB","auf",0
"178",178,"T_M_12.avi",NA,NA,NA,NA,0,11,11,11,NA,NA,NA,NA,NA,NA,NA,NA,1,4.81044546164,2,1.60335852741,NA,NA,NA,NA,"2013_Mai_25_2305","PostTest",1,12,NA,1,"Tor","FCB",2,"FCB","auf",1
"179",179,"T_D_13.avi",NA,NA,NA,NA,0,12,12,12,NA,NA,NA,NA,NA,NA,NA,NA,2,3.17360111411,1,1.01871718333,NA,NA,NA,NA,"2013_Mai_25_2305","PostTest",1,12,NA,1,"Tor","FCB",1,"BVB","daneben",1
"180",180,"K_M_01.avi",NA,NA,NA,NA,NA,NA,NA,NA,0,0,0,0,NA,NA,NA,NA,NA,NA,NA,NA,2,3.975282054,1,1.53658775068,"2013_Mai_25_2305","PostTest",1,12,NA,1,"KritSit","FCB",1,"FCB","Gegner",1
"181",181,"K_D_02.avi",NA,NA,NA,NA,NA,NA,NA,NA,0,1,1,1,NA,NA,NA,NA,NA,NA,NA,NA,1,2.55563290865,1,0.75146980971,"2013_Mai_25_2305","PostTest",1,12,NA,1,"KritSit","FCB",1,"BVB","Gegner",0
"182",182,"K_D_03.avi",NA,NA,NA,NA,NA,NA,NA,NA,0,2,2,2,NA,NA,NA,NA,NA,NA,NA,NA,2,3.15689228659,1,0.517518846669,"2013_Mai_25_2305","PostTest",1,12,NA,1,"KritSit","FCB",1,"BVB","Gegner",1
"183",183,"K_D_04.avi",NA,NA,NA,NA,NA,NA,NA,NA,0,3,3,3,NA,NA,NA,NA,NA,NA,NA,NA,2,2.25489245141,1,1.36949109454,"2013_Mai_25_2305","PostTest",1,12,NA,1,"KritSit","FCB",1,"BVB","Team",0
"184",184,"K_D_05.avi",NA,NA,NA,NA,NA,NA,NA,NA,0,4,4,4,NA,NA,NA,NA,NA,NA,NA,NA,1,3.27386525382,1,0.35061774611,"2013_Mai_25_2305","PostTest",1,12,NA,1,"KritSit","FCB",1,"BVB","Team",1
"185",185,"K_M_07.avi",NA,NA,NA,NA,NA,NA,NA,NA,0,5,5,5,NA,NA,NA,NA,NA,NA,NA,NA,1,2.07110037728,3,0.868294992799,"2013_Mai_25_2305","PostTest",1,12,NA,1,"KritSit","FCB",3,"FCB","Team",1
"186",186,"K_D_08.avi",NA,NA,NA,NA,NA,NA,NA,NA,0,6,6,6,NA,NA,NA,NA,NA,NA,NA,NA,1,2.47272712035,2,0.851079117597,"2013_Mai_25_2305","PostTest",1,12,NA,1,"KritSit","FCB",2,"BVB","Team",1
"187",187,"K_D_09.avi",NA,NA,NA,NA,NA,NA,NA,NA,0,7,7,7,NA,NA,NA,NA,NA,NA,NA,NA,1,1.77043870101,1,0.901900939924,"2013_Mai_25_2305","PostTest",1,12,NA,1,"KritSit","FCB",1,"BVB","Team",1
"188",188,"K_D_10.avi",NA,NA,NA,NA,NA,NA,NA,NA,0,8,8,8,NA,NA,NA,NA,NA,NA,NA,NA,1,3.69140351637,1,0.367351437124,"2013_Mai_25_2305","PostTest",1,12,NA,1,"KritSit","FCB",1,"BVB","Gegner",0
"189",189,"K_D_11.avi",NA,NA,NA,NA,NA,NA,NA,NA,0,9,9,9,NA,NA,NA,NA,NA,NA,NA,NA,1,1.70374111794,3,0.551148819193,"2013_Mai_25_2305","PostTest",1,12,NA,1,"KritSit","FCB",3,"BVB","Team",1
"190",190,"K_D_12.avi",NA,NA,NA,NA,NA,NA,NA,NA,0,10,10,10,NA,NA,NA,NA,NA,NA,NA,NA,2,3.44086217662,1,0.38407870274,"2013_Mai_25_2305","PostTest",1,12,NA,1,"KritSit","FCB",1,"BVB","Team",0
"191",191,"K_M_13.avi",NA,NA,NA,NA,NA,NA,NA,NA,0,11,11,11,NA,NA,NA,NA,NA,NA,NA,NA,1,4.3930273261,1,0.343132995953,"2013_Mai_25_2305","PostTest",1,12,NA,1,"KritSit","FCB",1,"FCB","Gegner",0
"192",192,"K_M_14.avi",NA,NA,NA,NA,NA,NA,NA,NA,0,12,12,12,NA,NA,NA,NA,NA,NA,NA,NA,1,2.68917083037,2,0.567783614957,"2013_Mai_25_2305","PostTest",1,12,NA,1,"KritSit","FCB",2,"FCB","Gegner",0
"193",193,"K_D_15.avi",NA,NA,NA,NA,NA,NA,NA,NA,0,13,13,13,NA,NA,NA,NA,NA,NA,NA,NA,1,2.07125263127,2,0.651261263652,"2013_Mai_25_2305","PostTest",1,12,NA,1,"KritSit","FCB",2,"BVB","Gegner",0
"194",194,"K_D_16.avi",NA,NA,NA,NA,NA,NA,NA,NA,0,14,14,14,NA,NA,NA,NA,NA,NA,NA,NA,1,1.35298396863,3,0.818393119796,"2013_Mai_25_2305","PostTest",1,12,NA,1,"KritSit","FCB",3,"BVB","Team",1
"195",195,"K_D_17.avi",NA,NA,NA,NA,NA,NA,NA,NA,0,15,15,15,NA,NA,NA,NA,NA,NA,NA,NA,1,1.05236391776,3,0.484176620213,"2013_Mai_25_2305","PostTest",1,12,NA,1,"KritSit","FCB",3,"BVB","Gegner",0
"196",196,"K_D_18.avi",NA,NA,NA,NA,NA,NA,NA,NA,0,16,16,16,NA,NA,NA,NA,NA,NA,NA,NA,2,2.47215470123,2,0.78484388379,"2013_Mai_25_2305","PostTest",1,12,NA,1,"KritSit","FCB",2,"BVB","Team",0
"197",197,"K_D_19.avi",NA,NA,NA,NA,NA,NA,NA,NA,0,17,17,17,NA,NA,NA,NA,NA,NA,NA,NA,2,1.16923771038,1,0.367408427607,"2013_Mai_25_2305","PostTest",1,12,NA,1,"KritSit","FCB",1,"BVB","Team",0
"198",198,"K_M_20.avi",NA,NA,NA,NA,NA,NA,NA,NA,0,18,18,18,NA,NA,NA,NA,NA,NA,NA,NA,2,3.17360726014,1,0.28379361064,"2013_Mai_25_2305","PostTest",1,12,NA,1,"KritSit","FCB",1,"FCB","Team",0
"199",199,"K_M_21.avi",NA,NA,NA,NA,NA,NA,NA,NA,0,19,19,19,NA,NA,NA,NA,NA,NA,NA,NA,1,1.20261122573,2,0.718125348333,"2013_Mai_25_2305","PostTest",1,12,NA,1,"KritSit","FCB",2,"FCB","Team",1
"200",200,"K_M_22.avi",NA,NA,NA,NA,NA,NA,NA,NA,0,20,20,20,NA,NA,NA,NA,NA,NA,NA,NA,1,2.68907500814,2,0.71826279597,"2013_Mai_25_2305","PostTest",1,12,NA,1,"KritSit","FCB",2,"FCB","Team",1
"201",201,"K_D_24.avi",NA,NA,NA,NA,NA,NA,NA,NA,0,21,21,21,NA,NA,NA,NA,NA,NA,NA,NA,1,6.74805066007,1,0.300533727052,"2013_Mai_25_2305","PostTest",1,12,NA,1,"KritSit","FCB",1,"BVB","Team",1
"202",202,"K_M_23.avi",NA,NA,NA,NA,NA,NA,NA,NA,0,22,22,22,NA,NA,NA,NA,NA,NA,NA,NA,1,2.13825528105,1,0.216695138628,"2013_Mai_25_2305","PostTest",1,12,NA,1,"KritSit","FCB",1,"FCB","Gegner",0
"203",203,"K_M_25.avi",NA,NA,NA,NA,NA,NA,NA,NA,0,23,23,23,NA,NA,NA,NA,NA,NA,NA,NA,1,1.28646015066,2,0.266841456107,"2013_Mai_25_2305","PostTest",1,12,NA,1,"KritSit","FCB",2,"FCB","Team",1
"204",204,"K_D_26.avi",NA,NA,NA,NA,NA,NA,NA,NA,0,24,24,24,NA,NA,NA,NA,NA,NA,NA,NA,2,2.22144322812,1,1.35291915593,"2013_Mai_25_2305","PostTest",1,12,NA,1,"KritSit","FCB",1,"BVB","Gegner",1
"205",205,"K_D_27.avi",NA,NA,NA,NA,NA,NA,NA,NA,0,25,25,25,NA,NA,NA,NA,NA,NA,NA,NA,1,1.28616122999,3,0.35075100327,"2013_Mai_25_2305","PostTest",1,12,NA,1,"KritSit","FCB",3,"BVB","Gegner",0
"206",206,"K_D_28.avi",NA,NA,NA,NA,NA,NA,NA,NA,0,26,26,26,NA,NA,NA,NA,NA,NA,NA,NA,1,3.05668066752,1,0.684742055205,"2013_Mai_25_2305","PostTest",1,12,NA,1,"KritSit","FCB",1,"BVB","Gegner",0
"207",207,"K_M_29.avi",NA,NA,NA,NA,NA,NA,NA,NA,0,27,27,27,NA,NA,NA,NA,NA,NA,NA,NA,1,1.77058760261,1,0.267164122815,"2013_Mai_25_2305","PostTest",1,12,NA,1,"KritSit","FCB",1,"FCB","Team",1
"208",208,"K_M_30.avi",NA,NA,NA,NA,NA,NA,NA,NA,0,28,28,28,NA,NA,NA,NA,NA,NA,NA,NA,1,6.76475557648,2,0.267133672017,"2013_Mai_25_2305","PostTest",1,12,NA,1,"KritSit","FCB",2,"FCB","Team",1
"209",209,"K_M_31.avi",NA,NA,NA,NA,NA,NA,NA,NA,0,29,29,29,NA,NA,NA,NA,NA,NA,NA,NA,1,2.28836346519,1,1.11900506908,"2013_Mai_25_2305","PostTest",1,12,NA,1,"KritSit","FCB",1,"FCB","Gegner",0
"210",210,"K_M_32.avi",NA,NA,NA,NA,NA,NA,NA,NA,0,30,30,30,NA,NA,NA,NA,NA,NA,NA,NA,1,1.65362580998,2,0.634720334568,"2013_Mai_25_2305","PostTest",1,12,NA,1,"KritSit","FCB",2,"FCB","Team",1
"211",211,"K_M_33.avi",NA,NA,NA,NA,NA,NA,NA,NA,0,31,31,31,NA,NA,NA,NA,NA,NA,NA,NA,1,3.84175726245,2,0.283686893167,"2013_Mai_25_2305","PostTest",1,12,NA,1,"KritSit","FCB",2,"FCB","Gegner",0
"212",212,"K_D_34.avi",NA,NA,NA,NA,NA,NA,NA,NA,0,32,32,32,NA,NA,NA,NA,NA,NA,NA,NA,2,6.21362547475,1,0.450811485817,"2013_Mai_25_2305","PostTest",1,12,NA,1,"KritSit","FCB",1,"BVB","Team",0
"213",213,"E_D_01.avi",0,0,0,0,NA,NA,NA,NA,NA,NA,NA,NA,2,7.52041251053,3,2.96900723416,NA,NA,NA,NA,NA,NA,NA,NA,"2013_Mai_25_2306","PostTest",1,13,NA,1,"Ecken","FCB",3,"BVB","Kopf",1
"215",215,"E_D_03.avi",0,2,2,2,NA,NA,NA,NA,NA,NA,NA,NA,2,4.22587060646,3,5.61215517615,NA,NA,NA,NA,NA,NA,NA,NA,"2013_Mai_25_2306","PostTest",1,13,NA,1,"Ecken","FCB",3,"BVB","Kopf",1
"216",216,"E_D_04.avi",0,3,3,3,NA,NA,NA,NA,NA,NA,NA,NA,1,1.69942073643,2,2.03768356034,NA,NA,NA,NA,NA,NA,NA,NA,"2013_Mai_25_2306","PostTest",1,13,NA,1,"Ecken","FCB",2,"BVB","Kopf",0
"217",217,"E_M_05.avi",0,4,4,4,NA,NA,NA,NA,NA,NA,NA,NA,1,1.33636397922,5,4.57649086686,NA,NA,NA,NA,NA,NA,NA,NA,"2013_Mai_25_2306","PostTest",1,13,NA,1,"Ecken","FCB",5,"FCB","Fuss",1
"218",218,"E_M_06.avi",0,5,5,5,NA,NA,NA,NA,NA,NA,NA,NA,2,1.72041167243,3,2.15444113707,NA,NA,NA,NA,NA,NA,NA,NA,"2013_Mai_25_2306","PostTest",1,13,NA,1,"Ecken","FCB",3,"FCB","Kopf",1
"219",219,"E_D_07.avi",0,6,6,6,NA,NA,NA,NA,NA,NA,NA,NA,1,3.09024191622,2,2.68892135732,NA,NA,NA,NA,NA,NA,NA,NA,"2013_Mai_25_2306","PostTest",1,13,NA,1,"Ecken","FCB",2,"BVB","Kopf",0
"220",220,"T_D_01.avi",NA,NA,NA,NA,0,0,0,0,NA,NA,NA,NA,NA,NA,NA,NA,2,2.65578669915,5,2.9563628897,NA,NA,NA,NA,"2013_Mai_25_2306","PostTest",1,13,NA,1,"Tor","FCB",5,"BVB","daneben",1
"221",221,"T_D_02.avi",NA,NA,NA,NA,0,1,1,1,NA,NA,NA,NA,NA,NA,NA,NA,1,4.25936089643,4,3.80815103596,NA,NA,NA,NA,"2013_Mai_25_2306","PostTest",1,13,NA,1,"Tor","FCB",4,"BVB","daneben",0
"222",222,"T_D_03.avi",NA,NA,NA,NA,0,2,2,2,NA,NA,NA,NA,NA,NA,NA,NA,1,1.16925028181,5,2.05436836246,NA,NA,NA,NA,"2013_Mai_25_2306","PostTest",1,13,NA,1,"Tor","FCB",5,"BVB","auf",1
"223",223,"T_M_04.avi",NA,NA,NA,NA,0,3,3,3,NA,NA,NA,NA,NA,NA,NA,NA,1,4.5764704732,4,1.98771016987,NA,NA,NA,NA,"2013_Mai_25_2306","PostTest",1,13,NA,1,"Tor","FCB",4,"FCB","auf",1
"224",224,"T_D_05.avi",NA,NA,NA,NA,0,4,4,4,NA,NA,NA,NA,NA,NA,NA,NA,1,1.16923212308,4,3.47416389513,NA,NA,NA,NA,"2013_Mai_25_2306","PostTest",1,13,NA,1,"Tor","FCB",4,"BVB","auf",1
"225",225,"T_D_06.avi",NA,NA,NA,NA,0,5,5,5,NA,NA,NA,NA,NA,NA,NA,NA,1,0.969163399259,5,1.537627827,NA,NA,NA,NA,"2013_Mai_25_2306","PostTest",1,13,NA,1,"Tor","FCB",5,"BVB","auf",1
"226",226,"T_M_07.avi",NA,NA,NA,NA,0,6,6,6,NA,NA,NA,NA,NA,NA,NA,NA,1,1.00221285107,5,0.901934184373,NA,NA,NA,NA,"2013_Mai_25_2306","PostTest",1,13,NA,1,"Tor","FCB",5,"FCB","auf",1
"227",227,"T_M_08.avi",NA,NA,NA,NA,0,7,7,7,NA,NA,NA,NA,NA,NA,NA,NA,2,3.27377585699,5,1.38625076651,NA,NA,NA,NA,"2013_Mai_25_2306","PostTest",1,13,NA,1,"Tor","FCB",5,"FCB","daneben",1
"228",228,"T_M_09.avi",NA,NA,NA,NA,0,8,8,8,NA,NA,NA,NA,NA,NA,NA,NA,1,2.87300061879,5,1.23595540774,NA,NA,NA,NA,"2013_Mai_25_2306","PostTest",1,13,NA,1,"Tor","FCB",5,"FCB","auf",1
"229",229,"T_M_10.avi",NA,NA,NA,NA,0,9,9,9,NA,NA,NA,NA,NA,NA,NA,NA,2,2.48883112239,5,0.901858197061,NA,NA,NA,NA,"2013_Mai_25_2306","PostTest",1,13,NA,1,"Tor","FCB",5,"FCB","auf",0
"230",230,"T_M_11.avi",NA,NA,NA,NA,0,10,10,10,NA,NA,NA,NA,NA,NA,NA,NA,1,1.0019988574,5,1.26931551356,NA,NA,NA,NA,"2013_Mai_25_2306","PostTest",1,13,NA,1,"Tor","FCB",5,"FCB","auf",1
"231",231,"T_M_12.avi",NA,NA,NA,NA,0,11,11,11,NA,NA,NA,NA,NA,NA,NA,NA,1,5.84602624077,3,1.50313405754,NA,NA,NA,NA,"2013_Mai_25_2306","PostTest",1,13,NA,1,"Tor","FCB",3,"FCB","auf",1
"232",232,"T_D_13.avi",NA,NA,NA,NA,0,12,12,12,NA,NA,NA,NA,NA,NA,NA,NA,2,1.44257719906,4,1.56385657954,NA,NA,NA,NA,"2013_Mai_25_2306","PostTest",1,13,NA,1,"Tor","FCB",4,"BVB","daneben",1
"233",233,"K_M_01.avi",NA,NA,NA,NA,NA,NA,NA,NA,0,0,0,0,NA,NA,NA,NA,NA,NA,NA,NA,2,5.44530687559,2,2.60548561339,"2013_Mai_25_2306","PostTest",1,13,NA,1,"KritSit","FCB",2,"FCB","Gegner",1
"234",234,"K_D_02.avi",NA,NA,NA,NA,NA,NA,NA,NA,0,1,1,1,NA,NA,NA,NA,NA,NA,NA,NA,1,3.09014022732,3,1.16911758338,"2013_Mai_25_2306","PostTest",1,13,NA,1,"KritSit","FCB",3,"BVB","Gegner",0
"235",235,"K_D_03.avi",NA,NA,NA,NA,NA,NA,NA,NA,0,2,2,2,NA,NA,NA,NA,NA,NA,NA,NA,2,3.90848948679,3,1.78718691901,"2013_Mai_25_2306","PostTest",1,13,NA,1,"KritSit","FCB",3,"BVB","Gegner",1
"236",236,"K_D_04.avi",NA,NA,NA,NA,NA,NA,NA,NA,0,3,3,3,NA,NA,NA,NA,NA,NA,NA,NA,1,2.38856642394,4,1.18582724899,"2013_Mai_25_2306","PostTest",1,13,NA,1,"KritSit","FCB",4,"BVB","Team",1
"237",237,"K_D_05.avi",NA,NA,NA,NA,NA,NA,NA,NA,0,4,4,4,NA,NA,NA,NA,NA,NA,NA,NA,1,2.05450441327,4,1.30253677493,"2013_Mai_25_2306","PostTest",1,13,NA,1,"KritSit","FCB",4,"BVB","Team",1
"238",238,"K_M_07.avi",NA,NA,NA,NA,NA,NA,NA,NA,0,5,5,5,NA,NA,NA,NA,NA,NA,NA,NA,1,1.40306854642,5,1.1022350606,"2013_Mai_25_2306","PostTest",1,13,NA,1,"KritSit","FCB",5,"FCB","Team",1
"239",239,"K_D_08.avi",NA,NA,NA,NA,NA,NA,NA,NA,0,6,6,6,NA,NA,NA,NA,NA,NA,NA,NA,1,1.50341873059,4,1.2525661781,"2013_Mai_25_2306","PostTest",1,13,NA,1,"KritSit","FCB",4,"BVB","Team",1
"240",240,"K_D_09.avi",NA,NA,NA,NA,NA,NA,NA,NA,0,7,7,7,NA,NA,NA,NA,NA,NA,NA,NA,2,2.38841947789,3,1.33612176967,"2013_Mai_25_2306","PostTest",1,13,NA,1,"KritSit","FCB",3,"BVB","Team",0
"241",241,"K_D_10.avi",NA,NA,NA,NA,NA,NA,NA,NA,0,8,8,8,NA,NA,NA,NA,NA,NA,NA,NA,1,1.65369341634,3,0.985300925118,"2013_Mai_25_2306","PostTest",1,13,NA,1,"KritSit","FCB",3,"BVB","Gegner",0
"242",242,"K_D_11.avi",NA,NA,NA,NA,NA,NA,NA,NA,0,9,9,9,NA,NA,NA,NA,NA,NA,NA,NA,1,2.30495970857,5,1.10238787332,"2013_Mai_25_2306","PostTest",1,13,NA,1,"KritSit","FCB",5,"BVB","Team",1
"243",243,"K_D_12.avi",NA,NA,NA,NA,NA,NA,NA,NA,0,10,10,10,NA,NA,NA,NA,NA,NA,NA,NA,1,2.03780983337,3,1.01879568493,"2013_Mai_25_2306","PostTest",1,13,NA,1,"KritSit","FCB",3,"BVB","Team",1
"244",244,"K_M_13.avi",NA,NA,NA,NA,NA,NA,NA,NA,0,11,11,11,NA,NA,NA,NA,NA,NA,NA,NA,1,1.18590519186,4,1.25264412097,"2013_Mai_25_2306","PostTest",1,13,NA,1,"KritSit","FCB",4,"FCB","Gegner",0
"245",245,"K_M_14.avi",NA,NA,NA,NA,NA,NA,NA,NA,0,12,12,12,NA,NA,NA,NA,NA,NA,NA,NA,2,3.35738564538,3,1.25258852731,"2013_Mai_25_2306","PostTest",1,13,NA,1,"KritSit","FCB",3,"FCB","Gegner",1
"246",246,"K_D_15.avi",NA,NA,NA,NA,NA,NA,NA,NA,0,13,13,13,NA,NA,NA,NA,NA,NA,NA,NA,2,4.77697835898,3,2.02093059313,"2013_Mai_25_2306","PostTest",1,13,NA,1,"KritSit","FCB",3,"BVB","Gegner",1
"247",247,"K_D_16.avi",NA,NA,NA,NA,NA,NA,NA,NA,0,14,14,14,NA,NA,NA,NA,NA,NA,NA,NA,1,1.90416016561,4,0.868338015027,"2013_Mai_25_2306","PostTest",1,13,NA,1,"KritSit","FCB",4,"BVB","Team",1
"248",248,"K_D_17.avi",NA,NA,NA,NA,NA,NA,NA,NA,0,15,15,15,NA,NA,NA,NA,NA,NA,NA,NA,1,1.08556422674,5,1.1525646416,"2013_Mai_25_2306","PostTest",1,13,NA,1,"KritSit","FCB",5,"BVB","Gegner",0
"249",249,"K_D_18.avi",NA,NA,NA,NA,NA,NA,NA,NA,0,16,16,16,NA,NA,NA,NA,NA,NA,NA,NA,2,2.45528104829,3,1.05217031774,"2013_Mai_25_2306","PostTest",1,13,NA,1,"KritSit","FCB",3,"BVB","Team",0
"250",250,"K_D_19.avi",NA,NA,NA,NA,NA,NA,NA,NA,0,17,17,17,NA,NA,NA,NA,NA,NA,NA,NA,1,1.43649039194,4,1.10231160664,"2013_Mai_25_2306","PostTest",1,13,NA,1,"KritSit","FCB",4,"BVB","Team",1
"251",251,"K_M_20.avi",NA,NA,NA,NA,NA,NA,NA,NA,0,18,18,18,NA,NA,NA,NA,NA,NA,NA,NA,1,1.85420297831,5,0.801550755752,"2013_Mai_25_2306","PostTest",1,13,NA,1,"KritSit","FCB",5,"FCB","Team",1
"252",252,"K_M_21.avi",NA,NA,NA,NA,NA,NA,NA,NA,0,19,19,19,NA,NA,NA,NA,NA,NA,NA,NA,1,1.06892831351,5,1.33608740776,"2013_Mai_25_2306","PostTest",1,13,NA,1,"KritSit","FCB",5,"FCB","Team",1
"253",253,"K_M_22.avi",NA,NA,NA,NA,NA,NA,NA,NA,0,20,20,20,NA,NA,NA,NA,NA,NA,NA,NA,1,6.16339171599,4,1.33680649356,"2013_Mai_25_2306","PostTest",1,13,NA,1,"KritSit","FCB",4,"FCB","Team",1
"254",254,"K_D_24.avi",NA,NA,NA,NA,NA,NA,NA,NA,0,21,21,21,NA,NA,NA,NA,NA,NA,NA,NA,1,1.00223045108,5,0.935219420345,"2013_Mai_25_2306","PostTest",1,13,NA,1,"KritSit","FCB",5,"BVB","Team",1
"255",255,"K_M_23.avi",NA,NA,NA,NA,NA,NA,NA,NA,0,22,22,22,NA,NA,NA,NA,NA,NA,NA,NA,2,1.73715653805,3,1.16923100562,"2013_Mai_25_2306","PostTest",1,13,NA,1,"KritSit","FCB",3,"FCB","Gegner",1
"256",256,"K_M_25.avi",NA,NA,NA,NA,NA,NA,NA,NA,0,23,23,23,NA,NA,NA,NA,NA,NA,NA,NA,2,2.52215910123,3,0.500962831868,"2013_Mai_25_2306","PostTest",1,13,NA,1,"KritSit","FCB",3,"FCB","Team",0
"257",257,"K_D_26.avi",NA,NA,NA,NA,NA,NA,NA,NA,0,24,24,24,NA,NA,NA,NA,NA,NA,NA,NA,2,3.64136251954,3,2.65561321341,"2013_Mai_25_2306","PostTest",1,13,NA,1,"KritSit","FCB",3,"BVB","Gegner",1
"258",258,"K_D_27.avi",NA,NA,NA,NA,NA,NA,NA,NA,0,25,25,25,NA,NA,NA,NA,NA,NA,NA,NA,2,2.88970357964,4,1.16907037068,"2013_Mai_25_2306","PostTest",1,13,NA,1,"KritSit","FCB",4,"BVB","Gegner",1
"259",259,"K_D_28.avi",NA,NA,NA,NA,NA,NA,NA,NA,0,26,26,26,NA,NA,NA,NA,NA,NA,NA,NA,2,1.83731898887,4,1.453148375,"2013_Mai_25_2306","PostTest",1,13,NA,1,"KritSit","FCB",4,"BVB","Gegner",1
"260",260,"K_M_29.avi",NA,NA,NA,NA,NA,NA,NA,NA,0,27,27,27,NA,NA,NA,NA,NA,NA,NA,NA,2,1.57013391367,4,1.50317009564,"2013_Mai_25_2306","PostTest",1,13,NA,1,"KritSit","FCB",4,"FCB","Team",0
"261",261,"K_M_30.avi",NA,NA,NA,NA,NA,NA,NA,NA,0,28,28,28,NA,NA,NA,NA,NA,NA,NA,NA,1,2.77278089813,4,1.08551366165,"2013_Mai_25_2306","PostTest",1,13,NA,1,"KritSit","FCB",4,"FCB","Team",1
"262",262,"K_M_31.avi",NA,NA,NA,NA,NA,NA,NA,NA,0,29,29,29,NA,NA,NA,NA,NA,NA,NA,NA,2,1.63698347136,3,1.38618204269,"2013_Mai_25_2306","PostTest",1,13,NA,1,"KritSit","FCB",3,"FCB","Gegner",1
"263",263,"K_M_32.avi",NA,NA,NA,NA,NA,NA,NA,NA,0,30,30,30,NA,NA,NA,NA,NA,NA,NA,NA,1,1.28612323633,4,1.68704458248,"2013_Mai_25_2306","PostTest",1,13,NA,1,"KritSit","FCB",4,"FCB","Team",1
"264",264,"K_M_33.avi",NA,NA,NA,NA,NA,NA,NA,NA,0,31,31,31,NA,NA,NA,NA,NA,NA,NA,NA,2,3.05661836909,3,1.16909271988,"2013_Mai_25_2306","PostTest",1,13,NA,1,"KritSit","FCB",3,"FCB","Gegner",1
"265",265,"K_D_34.avi",NA,NA,NA,NA,NA,NA,NA,NA,0,32,32,32,NA,NA,NA,NA,NA,NA,NA,NA,2,2.22156084083,2,2.1044548958,"2013_Mai_25_2306","PostTest",1,13,NA,1,"KritSit","FCB",2,"BVB","Team",0
"266",266,"E_D_01.avi",0,0,0,0,NA,NA,NA,NA,NA,NA,NA,NA,2,10.9071954676,1,2.78935535103,NA,NA,NA,NA,NA,NA,NA,NA,"2013_Mai_25_2307","PostTest",1,14,NA,1,"Ecken","FCB",1,"BVB","Kopf",1
"268",268,"E_D_03.avi",0,2,2,2,NA,NA,NA,NA,NA,NA,NA,NA,1,1.80397229257,3,1.98758222065,NA,NA,NA,NA,NA,NA,NA,NA,"2013_Mai_25_2307","PostTest",1,14,NA,1,"Ecken","FCB",3,"BVB","Kopf",0
"269",269,"E_D_04.avi",0,3,3,3,NA,NA,NA,NA,NA,NA,NA,NA,2,4.62681960975,2,1.97097117092,NA,NA,NA,NA,NA,NA,NA,NA,"2013_Mai_25_2307","PostTest",1,14,NA,1,"Ecken","FCB",2,"BVB","Kopf",1
"270",270,"E_M_05.avi",0,4,4,4,NA,NA,NA,NA,NA,NA,NA,NA,2,2.38857089379,3,1.20652457226,NA,NA,NA,NA,NA,NA,NA,NA,"2013_Mai_25_2307","PostTest",1,14,NA,1,"Ecken","FCB",3,"FCB","Fuss",0
"271",271,"E_M_06.avi",0,5,5,5,NA,NA,NA,NA,NA,NA,NA,NA,2,1.65347970203,3,1.35307923214,NA,NA,NA,NA,NA,NA,NA,NA,"2013_Mai_25_2307","PostTest",1,14,NA,1,"Ecken","FCB",3,"FCB","Kopf",1
"272",272,"E_D_07.avi",0,6,6,6,NA,NA,NA,NA,NA,NA,NA,NA,1,1.35295659085,2,0.918722630949,NA,NA,NA,NA,NA,NA,NA,NA,"2013_Mai_25_2307","PostTest",1,14,NA,1,"Ecken","FCB",2,"BVB","Kopf",0
"273",273,"T_D_01.avi",NA,NA,NA,NA,0,0,0,0,NA,NA,NA,NA,NA,NA,NA,NA,2,4.45978217902,2,1.23603362997,NA,NA,NA,NA,"2013_Mai_25_2307","PostTest",1,14,NA,1,"Tor","FCB",2,"BVB","daneben",1
"274",274,"T_D_02.avi",NA,NA,NA,NA,0,1,1,1,NA,NA,NA,NA,NA,NA,NA,NA,1,3.79161206243,2,0.768260770573,NA,NA,NA,NA,"2013_Mai_25_2307","PostTest",1,14,NA,1,"Tor","FCB",2,"BVB","daneben",0
"275",275,"T_D_03.avi",NA,NA,NA,NA,0,2,2,2,NA,NA,NA,NA,NA,NA,NA,NA,1,2.77280157115,2,1.28604836648,NA,NA,NA,NA,"2013_Mai_25_2307","PostTest",1,14,NA,1,"Tor","FCB",2,"BVB","auf",1
"276",276,"T_M_04.avi",NA,NA,NA,NA,0,3,3,3,NA,NA,NA,NA,NA,NA,NA,NA,2,6.73141307066,2,1.16914356434,NA,NA,NA,NA,"2013_Mai_25_2307","PostTest",1,14,NA,1,"Tor","FCB",2,"FCB","auf",0
"277",277,"T_D_05.avi",NA,NA,NA,NA,0,4,4,4,NA,NA,NA,NA,NA,NA,NA,NA,1,1.88753654445,1,0.88495968063,NA,NA,NA,NA,"2013_Mai_25_2307","PostTest",1,14,NA,1,"Tor","FCB",1,"BVB","auf",1
"278",278,"T_D_06.avi",NA,NA,NA,NA,0,5,5,5,NA,NA,NA,NA,NA,NA,NA,NA,1,1.62024754543,5,3.07336798392,NA,NA,NA,NA,"2013_Mai_25_2307","PostTest",1,14,NA,1,"Tor","FCB",5,"BVB","auf",1
"279",279,"T_M_07.avi",NA,NA,NA,NA,0,6,6,6,NA,NA,NA,NA,NA,NA,NA,NA,1,5.21135144271,5,1.11915844053,NA,NA,NA,NA,"2013_Mai_25_2307","PostTest",1,14,NA,1,"Tor","FCB",5,"FCB","auf",1
"280",280,"T_M_08.avi",NA,NA,NA,NA,0,7,7,7,NA,NA,NA,NA,NA,NA,NA,NA,2,3.42430895547,4,3.30690185484,NA,NA,NA,NA,"2013_Mai_25_2307","PostTest",1,14,NA,1,"Tor","FCB",4,"FCB","daneben",1
"281",281,"T_M_09.avi",NA,NA,NA,NA,0,8,8,8,NA,NA,NA,NA,NA,NA,NA,NA,1,4.14248431016,5,2.67238126633,NA,NA,NA,NA,"2013_Mai_25_2307","PostTest",1,14,NA,1,"Tor","FCB",5,"FCB","auf",1
"282",282,"T_M_10.avi",NA,NA,NA,NA,0,9,9,9,NA,NA,NA,NA,NA,NA,NA,NA,2,4.0088505662,4,1.11897992622,NA,NA,NA,NA,"2013_Mai_25_2307","PostTest",1,14,NA,1,"Tor","FCB",4,"FCB","auf",0
"283",283,"T_M_11.avi",NA,NA,NA,NA,0,10,10,10,NA,NA,NA,NA,NA,NA,NA,NA,1,4.40999289016,5,1.66992229459,NA,NA,NA,NA,"2013_Mai_25_2307","PostTest",1,14,NA,1,"Tor","FCB",5,"FCB","auf",1
"284",284,"T_M_12.avi",NA,NA,NA,NA,0,11,11,11,NA,NA,NA,NA,NA,NA,NA,NA,2,3.12357743791,2,1.77044512641,NA,NA,NA,NA,"2013_Mai_25_2307","PostTest",1,14,NA,1,"Tor","FCB",2,"FCB","auf",0
"285",285,"T_D_13.avi",NA,NA,NA,NA,0,12,12,12,NA,NA,NA,NA,NA,NA,NA,NA,2,2.45538636894,4,1.553344629,NA,NA,NA,NA,"2013_Mai_25_2307","PostTest",1,14,NA,1,"Tor","FCB",4,"BVB","daneben",1
"286",286,"K_M_01.avi",NA,NA,NA,NA,NA,NA,NA,NA,0,0,0,0,NA,NA,NA,NA,NA,NA,NA,NA,2,3.82509117779,4,1.88744239841,"2013_Mai_25_2307","PostTest",1,14,NA,1,"KritSit","FCB",4,"FCB","Gegner",1
"287",287,"K_D_02.avi",NA,NA,NA,NA,NA,NA,NA,NA,0,1,1,1,NA,NA,NA,NA,NA,NA,NA,NA,1,2.10447752438,5,1.33637124271,"2013_Mai_25_2307","PostTest",1,14,NA,1,"KritSit","FCB",5,"BVB","Gegner",0
"288",288,"K_D_03.avi",NA,NA,NA,NA,NA,NA,NA,NA,0,2,2,2,NA,NA,NA,NA,NA,NA,NA,NA,2,2.68932978912,3,1.2192147326,"2013_Mai_25_2307","PostTest",1,14,NA,1,"KritSit","FCB",3,"BVB","Gegner",1
"289",289,"K_D_04.avi",NA,NA,NA,NA,NA,NA,NA,NA,0,3,3,3,NA,NA,NA,NA,NA,NA,NA,NA,1,1.88750022698,3,0.968718929361,"2013_Mai_25_2307","PostTest",1,14,NA,1,"KritSit","FCB",3,"BVB","Team",1
"290",290,"K_D_05.avi",NA,NA,NA,NA,NA,NA,NA,NA,0,4,4,4,NA,NA,NA,NA,NA,NA,NA,NA,1,2.13802648102,4,1.60341244488,"2013_Mai_25_2307","PostTest",1,14,NA,1,"KritSit","FCB",4,"BVB","Team",1
"291",291,"K_M_07.avi",NA,NA,NA,NA,NA,NA,NA,NA,0,5,5,5,NA,NA,NA,NA,NA,NA,NA,NA,1,1.2025441781,5,1.77056832642,"2013_Mai_25_2307","PostTest",1,14,NA,1,"KritSit","FCB",5,"FCB","Team",1
"292",292,"K_D_08.avi",NA,NA,NA,NA,NA,NA,NA,NA,0,6,6,6,NA,NA,NA,NA,NA,NA,NA,NA,2,1.4866327983,4,1.31929449134,"2013_Mai_25_2307","PostTest",1,14,NA,1,"KritSit","FCB",4,"BVB","Team",0
"293",293,"K_D_09.avi",NA,NA,NA,NA,NA,NA,NA,NA,0,7,7,7,NA,NA,NA,NA,NA,NA,NA,NA,2,1.60353843854,4,1.48637969351,"2013_Mai_25_2307","PostTest",1,14,NA,1,"KritSit","FCB",4,"BVB","Team",0
"294",294,"K_D_10.avi",NA,NA,NA,NA,NA,NA,NA,NA,0,8,8,8,NA,NA,NA,NA,NA,NA,NA,NA,2,1.36969251679,4,1.05221725108,"2013_Mai_25_2307","PostTest",1,14,NA,1,"KritSit","FCB",4,"BVB","Gegner",1
"295",295,"K_D_11.avi",NA,NA,NA,NA,NA,NA,NA,NA,0,9,9,9,NA,NA,NA,NA,NA,NA,NA,NA,1,1.13586223947,5,1.92077261216,"2013_Mai_25_2307","PostTest",1,14,NA,1,"KritSit","FCB",5,"BVB","Team",1
"296",296,"K_D_12.avi",NA,NA,NA,NA,NA,NA,NA,NA,0,10,10,10,NA,NA,NA,NA,NA,NA,NA,NA,2,5.06118179825,5,1.45303243848,"2013_Mai_25_2307","PostTest",1,14,NA,1,"KritSit","FCB",5,"BVB","Team",0
"297",297,"K_M_13.avi",NA,NA,NA,NA,NA,NA,NA,NA,0,11,11,11,NA,NA,NA,NA,NA,NA,NA,NA,1,1.40303446388,4,1.98746069682,"2013_Mai_25_2307","PostTest",1,14,NA,1,"KritSit","FCB",4,"FCB","Gegner",0
"298",298,"K_M_14.avi",NA,NA,NA,NA,NA,NA,NA,NA,0,12,12,12,NA,NA,NA,NA,NA,NA,NA,NA,2,2.70593553091,3,1.03547853149,"2013_Mai_25_2307","PostTest",1,14,NA,1,"KritSit","FCB",3,"FCB","Gegner",1
"299",299,"K_D_15.avi",NA,NA,NA,NA,NA,NA,NA,NA,0,13,13,13,NA,NA,NA,NA,NA,NA,NA,NA,1,1.25292488291,4,1.31934617389,"2013_Mai_25_2307","PostTest",1,14,NA,1,"KritSit","FCB",4,"BVB","Gegner",0
"300",300,"K_D_16.avi",NA,NA,NA,NA,NA,NA,NA,NA,0,14,14,14,NA,NA,NA,NA,NA,NA,NA,NA,1,1.10221327012,5,1.00212429233,"2013_Mai_25_2307","PostTest",1,14,NA,1,"KritSit","FCB",5,"BVB","Team",1
"301",301,"K_D_17.avi",NA,NA,NA,NA,NA,NA,NA,NA,0,15,15,15,NA,NA,NA,NA,NA,NA,NA,NA,1,1.18597559187,5,0.851751270064,"2013_Mai_25_2307","PostTest",1,14,NA,1,"KritSit","FCB",5,"BVB","Gegner",0
"302",302,"K_D_18.avi",NA,NA,NA,NA,NA,NA,NA,NA,0,16,16,16,NA,NA,NA,NA,NA,NA,NA,NA,2,3.64124127508,4,1.92079077089,"2013_Mai_25_2307","PostTest",1,14,NA,1,"KritSit","FCB",4,"BVB","Team",0
"303",303,"K_D_19.avi",NA,NA,NA,NA,NA,NA,NA,NA,0,17,17,17,NA,NA,NA,NA,NA,NA,NA,NA,1,1.13574518549,5,0.985493128317,"2013_Mai_25_2307","PostTest",1,14,NA,1,"KritSit","FCB",5,"BVB","Team",1
"304",304,"K_M_20.avi",NA,NA,NA,NA,NA,NA,NA,NA,0,18,18,18,NA,NA,NA,NA,NA,NA,NA,NA,1,1.46992201523,5,1.119007304,"2013_Mai_25_2307","PostTest",1,14,NA,1,"KritSit","FCB",5,"FCB","Team",1
"305",305,"K_M_21.avi",NA,NA,NA,NA,NA,NA,NA,NA,0,19,19,19,NA,NA,NA,NA,NA,NA,NA,NA,1,1.20270788606,5,1.31939478342,"2013_Mai_25_2307","PostTest",1,14,NA,1,"KritSit","FCB",5,"FCB","Team",1
"306",306,"K_M_22.avi",NA,NA,NA,NA,NA,NA,NA,NA,0,20,20,20,NA,NA,NA,NA,NA,NA,NA,NA,1,1.06902497384,5,0.668023729273,"2013_Mai_25_2307","PostTest",1,14,NA,1,"KritSit","FCB",5,"FCB","Team",1
"307",307,"K_D_24.avi",NA,NA,NA,NA,NA,NA,NA,NA,0,21,21,21,NA,NA,NA,NA,NA,NA,NA,NA,1,1.10243089555,5,0.667933773706,"2013_Mai_25_2307","PostTest",1,14,NA,1,"KritSit","FCB",5,"BVB","Team",1
"308",308,"K_M_23.avi",NA,NA,NA,NA,NA,NA,NA,NA,0,22,22,22,NA,NA,NA,NA,NA,NA,NA,NA,2,1.40484977839,4,1.08562177595,"2013_Mai_25_2307","PostTest",1,14,NA,1,"KritSit","FCB",4,"FCB","Gegner",1
"309",309,"K_M_25.avi",NA,NA,NA,NA,NA,NA,NA,NA,0,23,23,23,NA,NA,NA,NA,NA,NA,NA,NA,1,1.13584687439,4,0.634609985347,"2013_Mai_25_2307","PostTest",1,14,NA,1,"KritSit","FCB",4,"FCB","Team",1
"310",310,"K_D_26.avi",NA,NA,NA,NA,NA,NA,NA,NA,0,24,24,24,NA,NA,NA,NA,NA,NA,NA,NA,2,3.65806156928,4,1.35287110513,"2013_Mai_25_2307","PostTest",1,14,NA,1,"KritSit","FCB",4,"BVB","Gegner",1
"311",311,"K_D_27.avi",NA,NA,NA,NA,NA,NA,NA,NA,0,25,25,25,NA,NA,NA,NA,NA,NA,NA,NA,1,3.04001765588,3,1.21923708181,"2013_Mai_25_2307","PostTest",1,14,NA,1,"KritSit","FCB",3,"BVB","Gegner",0
"312",312,"K_D_28.avi",NA,NA,NA,NA,NA,NA,NA,NA,0,26,26,26,NA,NA,NA,NA,NA,NA,NA,NA,1,1.63696168088,4,0.751539930354,"2013_Mai_25_2307","PostTest",1,14,NA,1,"KritSit","FCB",4,"BVB","Gegner",0
"313",313,"K_M_29.avi",NA,NA,NA,NA,NA,NA,NA,NA,0,27,27,27,NA,NA,NA,NA,NA,NA,NA,NA,2,2.98989480507,4,1.11881202779,"2013_Mai_25_2307","PostTest",1,14,NA,1,"KritSit","FCB",4,"FCB","Team",0
"314",314,"K_M_30.avi",NA,NA,NA,NA,NA,NA,NA,NA,0,28,28,28,NA,NA,NA,NA,NA,NA,NA,NA,1,1.25277737813,5,1.50319635596,"2013_Mai_25_2307","PostTest",1,14,NA,1,"KritSit","FCB",5,"FCB","Team",1
"315",315,"K_M_31.avi",NA,NA,NA,NA,NA,NA,NA,NA,0,29,29,29,NA,NA,NA,NA,NA,NA,NA,NA,1,3.62465089837,3,1.41971786917,"2013_Mai_25_2307","PostTest",1,14,NA,1,"KritSit","FCB",3,"FCB","Gegner",0
"316",316,"K_M_32.avi",NA,NA,NA,NA,NA,NA,NA,NA,0,30,30,30,NA,NA,NA,NA,NA,NA,NA,NA,1,1.670377101,5,0.768225570568,"2013_Mai_25_2307","PostTest",1,14,NA,1,"KritSit","FCB",5,"FCB","Team",1
"317",317,"K_M_33.avi",NA,NA,NA,NA,NA,NA,NA,NA,0,31,31,31,NA,NA,NA,NA,NA,NA,NA,NA,2,2.28839307789,3,0.80164182878,"2013_Mai_25_2307","PostTest",1,14,NA,1,"KritSit","FCB",3,"FCB","Gegner",1
"318",318,"K_D_34.avi",NA,NA,NA,NA,NA,NA,NA,NA,0,32,32,32,NA,NA,NA,NA,NA,NA,NA,NA,1,1.05242314316,4,1.08553237912,"2013_Mai_25_2307","PostTest",1,14,NA,1,"KritSit","FCB",4,"BVB","Team",1
"319",319,"E_D_01.avi",0,0,0,0,NA,NA,NA,NA,NA,NA,NA,NA,1,15.3042495624,2,9.26352902394,NA,NA,NA,NA,NA,NA,NA,NA,"2013_Mai_25_2309","PostTest",1,15,NA,1,"Ecken","FCB",2,"BVB","Kopf",0
"321",321,"E_D_03.avi",0,2,2,2,NA,NA,NA,NA,NA,NA,NA,NA,2,4.23196579454,4,6.51441929072,NA,NA,NA,NA,NA,NA,NA,NA,"2013_Mai_25_2309","PostTest",1,15,NA,1,"Ecken","FCB",4,"BVB","Kopf",1
"322",322,"E_D_04.avi",0,3,3,3,NA,NA,NA,NA,NA,NA,NA,NA,2,11.6808186515,5,4.26833578011,NA,NA,NA,NA,NA,NA,NA,NA,"2013_Mai_25_2309","PostTest",1,15,NA,1,"Ecken","FCB",5,"BVB","Kopf",1
"323",323,"E_M_05.avi",0,4,4,4,NA,NA,NA,NA,NA,NA,NA,NA,1,9.71355912553,3,1.71578454804,NA,NA,NA,NA,NA,NA,NA,NA,"2013_Mai_25_2309","PostTest",1,15,NA,1,"Ecken","FCB",3,"FCB","Fuss",1
"324",324,"E_M_06.avi",0,5,5,5,NA,NA,NA,NA,NA,NA,NA,NA,2,1.79946836819,5,1.93261266446,NA,NA,NA,NA,NA,NA,NA,NA,"2013_Mai_25_2309","PostTest",1,15,NA,1,"Ecken","FCB",5,"FCB","Kopf",1
"325",325,"E_D_07.avi",0,6,6,6,NA,NA,NA,NA,NA,NA,NA,NA,2,5.1483395236,4,2.58234077236,NA,NA,NA,NA,NA,NA,NA,NA,"2013_Mai_25_2309","PostTest",1,15,NA,1,"Ecken","FCB",4,"BVB","Kopf",1
"326",326,"T_D_01.avi",NA,NA,NA,NA,0,0,0,0,NA,NA,NA,NA,NA,NA,NA,NA,2,8.87480727299,4,4.93174607387,NA,NA,NA,NA,"2013_Mai_25_2309","PostTest",1,15,NA,1,"Tor","FCB",4,"BVB","daneben",1
"327",327,"T_D_02.avi",NA,NA,NA,NA,0,1,1,1,NA,NA,NA,NA,NA,NA,NA,NA,2,5.93135691827,5,1.33285124227,NA,NA,NA,NA,"2013_Mai_25_2309","PostTest",1,15,NA,1,"Tor","FCB",5,"BVB","daneben",1
"328",328,"T_D_03.avi",NA,NA,NA,NA,0,2,2,2,NA,NA,NA,NA,NA,NA,NA,NA,1,2.11434581769,5,1.53288839783,NA,NA,NA,NA,"2013_Mai_25_2309","PostTest",1,15,NA,1,"Tor","FCB",5,"BVB","auf",1
"329",329,"T_M_04.avi",NA,NA,NA,NA,0,3,3,3,NA,NA,NA,NA,NA,NA,NA,NA,1,23.9916684942,3,2.0155846623,NA,NA,NA,NA,"2013_Mai_25_2309","PostTest",1,15,NA,1,"Tor","FCB",3,"FCB","auf",1
"330",330,"T_D_05.avi",NA,NA,NA,NA,0,4,4,4,NA,NA,NA,NA,NA,NA,NA,NA,1,2.1159650179,5,1.63254882953,NA,NA,NA,NA,"2013_Mai_25_2309","PostTest",1,15,NA,1,"Tor","FCB",5,"BVB","auf",1
"331",331,"T_D_06.avi",NA,NA,NA,NA,0,5,5,5,NA,NA,NA,NA,NA,NA,NA,NA,1,3.24965379678,5,6.3302643213,NA,NA,NA,NA,"2013_Mai_25_2309","PostTest",1,15,NA,1,"Tor","FCB",5,"BVB","auf",1
"332",332,"T_M_07.avi",NA,NA,NA,NA,0,6,6,6,NA,NA,NA,NA,NA,NA,NA,NA,1,3.96540063053,5,1.88261692478,NA,NA,NA,NA,"2013_Mai_25_2309","PostTest",1,15,NA,1,"Tor","FCB",5,"FCB","auf",1
"333",333,"T_M_08.avi",NA,NA,NA,NA,0,7,7,7,NA,NA,NA,NA,NA,NA,NA,NA,1,9.60178011451,4,1.27776994003,NA,NA,NA,NA,"2013_Mai_25_2309","PostTest",1,15,NA,1,"Tor","FCB",4,"FCB","daneben",0
"334",334,"T_M_09.avi",NA,NA,NA,NA,0,8,8,8,NA,NA,NA,NA,NA,NA,NA,NA,1,2.01603052902,5,1.59943931421,NA,NA,NA,NA,"2013_Mai_25_2309","PostTest",1,15,NA,1,"Tor","FCB",5,"FCB","auf",1
"335",335,"T_M_10.avi",NA,NA,NA,NA,0,9,9,9,NA,NA,NA,NA,NA,NA,NA,NA,1,3.87663264465,5,1.81588917027,NA,NA,NA,NA,"2013_Mai_25_2309","PostTest",1,15,NA,1,"Tor","FCB",5,"FCB","auf",1
"336",336,"T_M_11.avi",NA,NA,NA,NA,0,10,10,10,NA,NA,NA,NA,NA,NA,NA,NA,1,4.21523992574,5,1.39991172062,NA,NA,NA,NA,"2013_Mai_25_2309","PostTest",1,15,NA,1,"Tor","FCB",5,"FCB","auf",1
"337",337,"T_M_12.avi",NA,NA,NA,NA,0,11,11,11,NA,NA,NA,NA,NA,NA,NA,NA,2,16.7786565052,4,2.3157976782,NA,NA,NA,NA,"2013_Mai_25_2309","PostTest",1,15,NA,1,"Tor","FCB",4,"FCB","auf",0
"338",338,"T_D_13.avi",NA,NA,NA,NA,0,12,12,12,NA,NA,NA,NA,NA,NA,NA,NA,2,6.71445588755,5,3.38517493145,NA,NA,NA,NA,"2013_Mai_25_2309","PostTest",1,15,NA,1,"Tor","FCB",5,"BVB","daneben",1
"339",339,"K_M_01.avi",NA,NA,NA,NA,NA,NA,NA,NA,0,0,0,0,NA,NA,NA,NA,NA,NA,NA,NA,1,12.0127077603,4,3.23217811202,"2013_Mai_25_2309","PostTest",1,15,NA,1,"KritSit","FCB",4,"FCB","Gegner",0
"340",340,"K_D_02.avi",NA,NA,NA,NA,NA,NA,NA,NA,0,1,1,1,NA,NA,NA,NA,NA,NA,NA,NA,1,14.995918755,3,1.89927239356,"2013_Mai_25_2309","PostTest",1,15,NA,1,"KritSit","FCB",3,"BVB","Gegner",0
"341",341,"K_D_03.avi",NA,NA,NA,NA,NA,NA,NA,NA,0,2,2,2,NA,NA,NA,NA,NA,NA,NA,NA,2,9.84679142181,4,1.43276030892,"2013_Mai_25_2309","PostTest",1,15,NA,1,"KritSit","FCB",4,"BVB","Gegner",1
"342",342,"K_D_04.avi",NA,NA,NA,NA,NA,NA,NA,NA,0,3,3,3,NA,NA,NA,NA,NA,NA,NA,NA,2,11.5795650006,4,1.79936388563,"2013_Mai_25_2309","PostTest",1,15,NA,1,"KritSit","FCB",4,"BVB","Team",0
"343",343,"K_D_05.avi",NA,NA,NA,NA,NA,NA,NA,NA,0,4,4,4,NA,NA,NA,NA,NA,NA,NA,NA,1,2.88251719143,5,2.84915848243,"2013_Mai_25_2309","PostTest",1,15,NA,1,"KritSit","FCB",5,"BVB","Team",1
"344",344,"K_M_07.avi",NA,NA,NA,NA,NA,NA,NA,NA,0,5,5,5,NA,NA,NA,NA,NA,NA,NA,NA,1,5.58133813096,4,2.68243505809,"2013_Mai_25_2309","PostTest",1,15,NA,1,"KritSit","FCB",4,"FCB","Team",1
"345",345,"K_D_08.avi",NA,NA,NA,NA,NA,NA,NA,NA,0,6,6,6,NA,NA,NA,NA,NA,NA,NA,NA,1,2.13268557875,5,1.33278335654,"2013_Mai_25_2309","PostTest",1,15,NA,1,"KritSit","FCB",5,"BVB","Team",1
"346",346,"K_D_09.avi",NA,NA,NA,NA,NA,NA,NA,NA,0,7,7,7,NA,NA,NA,NA,NA,NA,NA,NA,1,4.33191061993,4,1.28283371211,"2013_Mai_25_2309","PostTest",1,15,NA,1,"KritSit","FCB",4,"BVB","Team",1
"347",347,"K_D_10.avi",NA,NA,NA,NA,NA,NA,NA,NA,0,8,8,8,NA,NA,NA,NA,NA,NA,NA,NA,2,9.74687900278,5,1.14948827295,"2013_Mai_25_2309","PostTest",1,15,NA,1,"KritSit","FCB",5,"BVB","Gegner",1
"348",348,"K_D_11.avi",NA,NA,NA,NA,NA,NA,NA,NA,0,9,9,9,NA,NA,NA,NA,NA,NA,NA,NA,1,2.3326227216,5,1.11622315127,"2013_Mai_25_2309","PostTest",1,15,NA,1,"KritSit","FCB",5,"BVB","Team",1
"349",349,"K_D_12.avi",NA,NA,NA,NA,NA,NA,NA,NA,0,10,10,10,NA,NA,NA,NA,NA,NA,NA,NA,1,5.8480728696,4,1.08286919148,"2013_Mai_25_2309","PostTest",1,15,NA,1,"KritSit","FCB",4,"BVB","Team",1
"350",350,"K_M_13.avi",NA,NA,NA,NA,NA,NA,NA,NA,0,11,11,11,NA,NA,NA,NA,NA,NA,NA,NA,1,6.51459193836,4,1.21615847824,"2013_Mai_25_2309","PostTest",1,15,NA,1,"KritSit","FCB",4,"FCB","Gegner",0
"351",351,"K_M_14.avi",NA,NA,NA,NA,NA,NA,NA,NA,0,12,12,12,NA,NA,NA,NA,NA,NA,NA,NA,2,3.13239950888,5,3.19877973318,"2013_Mai_25_2309","PostTest",1,15,NA,1,"KritSit","FCB",5,"FCB","Gegner",1
"352",352,"K_D_15.avi",NA,NA,NA,NA,NA,NA,NA,NA,0,13,13,13,NA,NA,NA,NA,NA,NA,NA,NA,1,13.795473447,4,1.28278594067,"2013_Mai_25_2309","PostTest",1,15,NA,1,"KritSit","FCB",4,"BVB","Gegner",0
"353",353,"K_D_16.avi",NA,NA,NA,NA,NA,NA,NA,NA,0,14,14,14,NA,NA,NA,NA,NA,NA,NA,NA,1,4.18201307708,4,1.04955210788,"2013_Mai_25_2309","PostTest",1,15,NA,1,"KritSit","FCB",4,"BVB","Team",1
"354",354,"K_D_17.avi",NA,NA,NA,NA,NA,NA,NA,NA,0,15,15,15,NA,NA,NA,NA,NA,NA,NA,NA,1,1.71590663059,5,1.34932568245,"2013_Mai_25_2309","PostTest",1,15,NA,1,"KritSit","FCB",5,"BVB","Gegner",0
"355",355,"K_D_18.avi",NA,NA,NA,NA,NA,NA,NA,NA,0,16,16,16,NA,NA,NA,NA,NA,NA,NA,NA,2,11.9128227191,3,1.14946452692,"2013_Mai_25_2309","PostTest",1,15,NA,1,"KritSit","FCB",3,"BVB","Team",0
"356",356,"K_D_19.avi",NA,NA,NA,NA,NA,NA,NA,NA,0,17,17,17,NA,NA,NA,NA,NA,NA,NA,NA,1,3.36567440834,4,0.999514184065,"2013_Mai_25_2309","PostTest",1,15,NA,1,"KritSit","FCB",4,"BVB","Team",1
"357",357,"K_M_20.avi",NA,NA,NA,NA,NA,NA,NA,NA,0,18,18,18,NA,NA,NA,NA,NA,NA,NA,NA,2,10.4299602324,4,2.18228964854,"2013_Mai_25_2309","PostTest",1,15,NA,1,"KritSit","FCB",4,"FCB","Team",0
"358",358,"K_M_21.avi",NA,NA,NA,NA,NA,NA,NA,NA,0,19,19,19,NA,NA,NA,NA,NA,NA,NA,NA,1,2.14931534594,5,1.08294042958,"2013_Mai_25_2309","PostTest",1,15,NA,1,"KritSit","FCB",5,"FCB","Team",1
"359",359,"K_M_22.avi",NA,NA,NA,NA,NA,NA,NA,NA,0,20,20,20,NA,NA,NA,NA,NA,NA,NA,NA,1,2.41584391312,5,1.28286667719,"2013_Mai_25_2309","PostTest",1,15,NA,1,"KritSit","FCB",5,"FCB","Team",1
"360",360,"K_D_24.avi",NA,NA,NA,NA,NA,NA,NA,NA,0,21,21,21,NA,NA,NA,NA,NA,NA,NA,NA,1,3.58222818822,5,1.04933085071,"2013_Mai_25_2309","PostTest",1,15,NA,1,"KritSit","FCB",5,"BVB","Team",1
"361",361,"K_M_23.avi",NA,NA,NA,NA,NA,NA,NA,NA,0,22,22,22,NA,NA,NA,NA,NA,NA,NA,NA,1,3.24896991098,4,0.899623834873,"2013_Mai_25_2309","PostTest",1,15,NA,1,"KritSit","FCB",4,"FCB","Gegner",0
"362",362,"K_M_25.avi",NA,NA,NA,NA,NA,NA,NA,NA,0,23,23,23,NA,NA,NA,NA,NA,NA,NA,NA,2,4.36508410985,3,1.549532692,"2013_Mai_25_2309","PostTest",1,15,NA,1,"KritSit","FCB",3,"FCB","Team",0
"363",363,"K_D_26.avi",NA,NA,NA,NA,NA,NA,NA,NA,0,24,24,24,NA,NA,NA,NA,NA,NA,NA,NA,1,1.76616944332,4,1.01629369096,"2013_Mai_25_2309","PostTest",1,15,NA,1,"KritSit","FCB",4,"BVB","Gegner",0
"364",364,"K_D_27.avi",NA,NA,NA,NA,NA,NA,NA,NA,0,25,25,25,NA,NA,NA,NA,NA,NA,NA,NA,2,3.59893897129,5,1.13274256924,"2013_Mai_25_2309","PostTest",1,15,NA,1,"KritSit","FCB",5,"BVB","Gegner",1
"365",365,"K_D_28.avi",NA,NA,NA,NA,NA,NA,NA,NA,0,26,26,26,NA,NA,NA,NA,NA,NA,NA,NA,2,6.61460800186,5,1.14946955549,"2013_Mai_25_2309","PostTest",1,15,NA,1,"KritSit","FCB",5,"BVB","Gegner",1
"366",366,"K_M_29.avi",NA,NA,NA,NA,NA,NA,NA,NA,0,27,27,27,NA,NA,NA,NA,NA,NA,NA,NA,2,4.36523524638,3,1.56615324015,"2013_Mai_25_2309","PostTest",1,15,NA,1,"KritSit","FCB",3,"FCB","Team",0
"367",367,"K_M_30.avi",NA,NA,NA,NA,NA,NA,NA,NA,0,28,28,28,NA,NA,NA,NA,NA,NA,NA,NA,1,1.93266714066,4,1.36609345601,"2013_Mai_25_2309","PostTest",1,15,NA,1,"KritSit","FCB",4,"FCB","Team",1
"368",368,"K_M_31.avi",NA,NA,NA,NA,NA,NA,NA,NA,0,29,29,29,NA,NA,NA,NA,NA,NA,NA,NA,1,6.1980019807,4,1.54938323167,"2013_Mai_25_2309","PostTest",1,15,NA,1,"KritSit","FCB",4,"FCB","Gegner",0
"369",369,"K_M_32.avi",NA,NA,NA,NA,NA,NA,NA,NA,0,30,30,30,NA,NA,NA,NA,NA,NA,NA,NA,1,5.96475585584,3,1.08291668355,"2013_Mai_25_2309","PostTest",1,15,NA,1,"KritSit","FCB",3,"FCB","Team",1
"370",370,"K_M_33.avi",NA,NA,NA,NA,NA,NA,NA,NA,0,31,31,31,NA,NA,NA,NA,NA,NA,NA,NA,2,1.48296780736,4,1.31605497347,"2013_Mai_25_2309","PostTest",1,15,NA,1,"KritSit","FCB",4,"FCB","Gegner",1
"371",371,"K_D_34.avi",NA,NA,NA,NA,NA,NA,NA,NA,0,32,32,32,NA,NA,NA,NA,NA,NA,NA,NA,1,1.19962872376,4,2.59905853956,"2013_Mai_25_2309","PostTest",1,15,NA,1,"KritSit","FCB",4,"BVB","Team",1
"372",372,"E_D_01.avi",0,0,0,0,NA,NA,NA,NA,NA,NA,NA,NA,2,4.28198388343,3,2.56556154483,NA,NA,NA,NA,NA,NA,NA,NA,"2013_Mai_25_2305","PostTest",1,16,NA,1,"Ecken","FCB",3,"BVB","Kopf",1
"374",374,"E_D_03.avi",0,2,2,2,NA,NA,NA,NA,NA,NA,NA,NA,2,4.36495727809,3,1.29948219676,NA,NA,NA,NA,NA,NA,NA,NA,"2013_Mai_25_2305","PostTest",1,16,NA,1,"Ecken","FCB",3,"BVB","Kopf",1
"375",375,"E_D_04.avi",0,3,3,3,NA,NA,NA,NA,NA,NA,NA,NA,1,1.66606090998,3,0.949696399961,NA,NA,NA,NA,NA,NA,NA,NA,"2013_Mai_25_2305","PostTest",1,16,NA,1,"Ecken","FCB",3,"BVB","Kopf",0
"376",376,"E_M_05.avi",0,4,4,4,NA,NA,NA,NA,NA,NA,NA,NA,1,1.49956544756,3,1.7826271216,NA,NA,NA,NA,NA,NA,NA,NA,"2013_Mai_25_2305","PostTest",1,16,NA,1,"Ecken","FCB",3,"FCB","Fuss",1
"377",377,"E_M_06.avi",0,5,5,5,NA,NA,NA,NA,NA,NA,NA,NA,2,1.63268962955,4,1.44955015232,NA,NA,NA,NA,NA,NA,NA,NA,"2013_Mai_25_2305","PostTest",1,16,NA,1,"Ecken","FCB",4,"FCB","Kopf",1
"378",378,"E_D_07.avi",0,6,6,6,NA,NA,NA,NA,NA,NA,NA,NA,2,2.99911860306,3,3.68198276597,NA,NA,NA,NA,NA,NA,NA,NA,"2013_Mai_25_2305","PostTest",1,16,NA,1,"Ecken","FCB",3,"BVB","Kopf",1
"379",379,"T_D_01.avi",NA,NA,NA,NA,0,0,0,0,NA,NA,NA,NA,NA,NA,NA,NA,2,5.42592173028,4,1.38287910894,NA,NA,NA,NA,"2013_Mai_25_2305","PostTest",1,16,NA,1,"Tor","FCB",4,"BVB","daneben",1
"380",380,"T_D_02.avi",NA,NA,NA,NA,0,1,1,1,NA,NA,NA,NA,NA,NA,NA,NA,2,2.40090486361,3,1.08123267063,NA,NA,NA,NA,"2013_Mai_25_2305","PostTest",1,16,NA,1,"Tor","FCB",3,"BVB","daneben",1
"381",381,"T_D_03.avi",NA,NA,NA,NA,0,2,2,2,NA,NA,NA,NA,NA,NA,NA,NA,2,2.53790858894,4,2.16586884646,NA,NA,NA,NA,"2013_Mai_25_2305","PostTest",1,16,NA,1,"Tor","FCB",4,"BVB","auf",0
"382",382,"T_M_04.avi",NA,NA,NA,NA,0,3,3,3,NA,NA,NA,NA,NA,NA,NA,NA,1,1.63256782636,3,1.36625381159,NA,NA,NA,NA,"2013_Mai_25_2305","PostTest",1,16,NA,1,"Tor","FCB",3,"FCB","auf",1
"383",383,"T_D_05.avi",NA,NA,NA,NA,0,4,4,4,NA,NA,NA,NA,NA,NA,NA,NA,1,1.33295237244,3,1.21611489728,NA,NA,NA,NA,"2013_Mai_25_2305","PostTest",1,16,NA,1,"Tor","FCB",3,"BVB","auf",1
"384",384,"T_D_06.avi",NA,NA,NA,NA,0,5,5,5,NA,NA,NA,NA,NA,NA,NA,NA,1,1.23292317878,4,2.21587492265,NA,NA,NA,NA,"2013_Mai_25_2305","PostTest",1,16,NA,1,"Tor","FCB",4,"BVB","auf",1
"385",385,"T_M_07.avi",NA,NA,NA,NA,0,6,6,6,NA,NA,NA,NA,NA,NA,NA,NA,1,1.41636157668,4,1.06609080204,NA,NA,NA,NA,"2013_Mai_25_2305","PostTest",1,16,NA,1,"Tor","FCB",4,"FCB","auf",1
"386",386,"T_M_08.avi",NA,NA,NA,NA,0,7,7,7,NA,NA,NA,NA,NA,NA,NA,NA,1,1.2662793735,3,1.19953318089,NA,NA,NA,NA,"2013_Mai_25_2305","PostTest",1,16,NA,1,"Tor","FCB",3,"FCB","daneben",0
"387",387,"T_M_09.avi",NA,NA,NA,NA,0,8,8,8,NA,NA,NA,NA,NA,NA,NA,NA,1,1.26629501794,2,1.53270513431,NA,NA,NA,NA,"2013_Mai_25_2305","PostTest",1,16,NA,1,"Tor","FCB",2,"FCB","auf",1
"388",388,"T_M_10.avi",NA,NA,NA,NA,0,9,9,9,NA,NA,NA,NA,NA,NA,NA,NA,2,1.76605881474,1,1.1162829354,NA,NA,NA,NA,"2013_Mai_25_2305","PostTest",1,16,NA,1,"Tor","FCB",1,"FCB","auf",0
"389",389,"T_M_11.avi",NA,NA,NA,NA,0,10,10,10,NA,NA,NA,NA,NA,NA,NA,NA,1,4.84851063473,5,2.33305350261,NA,NA,NA,NA,"2013_Mai_25_2305","PostTest",1,16,NA,1,"Tor","FCB",5,"FCB","auf",1
"390",390,"T_M_12.avi",NA,NA,NA,NA,0,11,11,11,NA,NA,NA,NA,NA,NA,NA,NA,2,2.14935250151,4,0.816307659214,NA,NA,NA,NA,"2013_Mai_25_2305","PostTest",1,16,NA,1,"Tor","FCB",4,"FCB","auf",0
"391",391,"T_D_13.avi",NA,NA,NA,NA,0,12,12,12,NA,NA,NA,NA,NA,NA,NA,NA,2,2.81577630677,3,2.48243645491,NA,NA,NA,NA,"2013_Mai_25_2305","PostTest",1,16,NA,1,"Tor","FCB",3,"BVB","daneben",1
"392",392,"K_M_01.avi",NA,NA,NA,NA,NA,NA,NA,NA,0,0,0,0,NA,NA,NA,NA,NA,NA,NA,NA,1,6.11473190028,1,1.54949916819,"2013_Mai_25_2305","PostTest",1,16,NA,1,"KritSit","FCB",1,"FCB","Gegner",0
"393",393,"K_D_02.avi",NA,NA,NA,NA,NA,NA,NA,NA,0,1,1,1,NA,NA,NA,NA,NA,NA,NA,NA,1,2.98240307078,2,0.86627685921,"2013_Mai_25_2305","PostTest",1,16,NA,1,"KritSit","FCB",2,"BVB","Gegner",0
"394",394,"K_D_03.avi",NA,NA,NA,NA,NA,NA,NA,NA,0,2,2,2,NA,NA,NA,NA,NA,NA,NA,NA,2,3.98206364217,1,1.29947018406,"2013_Mai_25_2305","PostTest",1,16,NA,1,"KritSit","FCB",1,"BVB","Gegner",1
"395",395,"K_D_04.avi",NA,NA,NA,NA,NA,NA,NA,NA,0,3,3,3,NA,NA,NA,NA,NA,NA,NA,NA,1,1.76609317665,3,1.11619381793,"2013_Mai_25_2305","PostTest",1,16,NA,1,"KritSit","FCB",3,"BVB","Team",1
"396",396,"K_D_05.avi",NA,NA,NA,NA,NA,NA,NA,NA,0,4,4,4,NA,NA,NA,NA,NA,NA,NA,NA,2,1.74952906026,3,1.39939349834,"2013_Mai_25_2305","PostTest",1,16,NA,1,"KritSit","FCB",3,"BVB","Team",0
"397",397,"K_M_07.avi",NA,NA,NA,NA,NA,NA,NA,NA,0,5,5,5,NA,NA,NA,NA,NA,NA,NA,NA,1,1.79941528881,3,0.949581022169,"2013_Mai_25_2305","PostTest",1,16,NA,1,"KritSit","FCB",3,"FCB","Team",1
"398",398,"K_D_08.avi",NA,NA,NA,NA,NA,NA,NA,NA,0,6,6,6,NA,NA,NA,NA,NA,NA,NA,NA,1,2.86558682738,3,0.916430998912,"2013_Mai_25_2305","PostTest",1,16,NA,1,"KritSit","FCB",3,"BVB","Team",1
"399",399,"K_D_09.avi",NA,NA,NA,NA,NA,NA,NA,NA,0,7,7,7,NA,NA,NA,NA,NA,NA,NA,NA,2,1.94945363168,1,1.08289852481,"2013_Mai_25_2305","PostTest",1,16,NA,1,"KritSit","FCB",1,"BVB","Team",0
"400",400,"K_D_10.avi",NA,NA,NA,NA,NA,NA,NA,NA,0,8,8,8,NA,NA,NA,NA,NA,NA,NA,NA,2,1.14966147932,2,0.849676704721,"2013_Mai_25_2305","PostTest",1,16,NA,1,"KritSit","FCB",2,"BVB","Gegner",1
"401",401,"K_D_11.avi",NA,NA,NA,NA,NA,NA,NA,NA,0,9,9,9,NA,NA,NA,NA,NA,NA,NA,NA,1,1.18300202959,3,1.08280046766,"2013_Mai_25_2305","PostTest",1,16,NA,1,"KritSit","FCB",3,"BVB","Team",1
"402",402,"K_D_12.avi",NA,NA,NA,NA,NA,NA,NA,NA,0,10,10,10,NA,NA,NA,NA,NA,NA,NA,NA,2,2.09935983484,1,0.316446643358,"2013_Mai_25_2305","PostTest",1,16,NA,1,"KritSit","FCB",1,"BVB","Team",0
"403",403,"K_M_13.avi",NA,NA,NA,NA,NA,NA,NA,NA,0,11,11,11,NA,NA,NA,NA,NA,NA,NA,NA,1,1.76617419253,3,0.649625022175,"2013_Mai_25_2305","PostTest",1,16,NA,1,"KritSit","FCB",3,"FCB","Gegner",0
"404",404,"K_M_14.avi",NA,NA,NA,NA,NA,NA,NA,NA,0,12,12,12,NA,NA,NA,NA,NA,NA,NA,NA,2,2.66576059248,1,0.516379595731,"2013_Mai_25_2305","PostTest",1,16,NA,1,"KritSit","FCB",1,"FCB","Gegner",1
"405",405,"K_D_15.avi",NA,NA,NA,NA,NA,NA,NA,NA,0,13,13,13,NA,NA,NA,NA,NA,NA,NA,NA,1,1.88270101368,1,0.566328122708,"2013_Mai_25_2305","PostTest",1,16,NA,1,"KritSit","FCB",1,"BVB","Gegner",0
"406",406,"K_D_16.avi",NA,NA,NA,NA,NA,NA,NA,NA,0,14,14,14,NA,NA,NA,NA,NA,NA,NA,NA,1,2.36598115124,1,0.716155544909,"2013_Mai_25_2305","PostTest",1,16,NA,1,"KritSit","FCB",1,"BVB","Team",1
"407",407,"K_D_17.avi",NA,NA,NA,NA,NA,NA,NA,NA,0,15,15,15,NA,NA,NA,NA,NA,NA,NA,NA,1,1.31632567826,2,0.333097083568,"2013_Mai_25_2305","PostTest",1,16,NA,1,"KritSit","FCB",2,"BVB","Gegner",0
"408",408,"K_D_18.avi",NA,NA,NA,NA,NA,NA,NA,NA,0,16,16,16,NA,NA,NA,NA,NA,NA,NA,NA,2,2.96577050994,2,1.06598408457,"2013_Mai_25_2305","PostTest",1,16,NA,1,"KritSit","FCB",2,"BVB","Team",0
"409",409,"K_D_19.avi",NA,NA,NA,NA,NA,NA,NA,NA,0,17,17,17,NA,NA,NA,NA,NA,NA,NA,NA,1,2.5326299851,1,0.482821140676,"2013_Mai_25_2305","PostTest",1,16,NA,1,"KritSit","FCB",1,"BVB","Team",1
"410",410,"K_M_20.avi",NA,NA,NA,NA,NA,NA,NA,NA,0,18,18,18,NA,NA,NA,NA,NA,NA,NA,NA,2,1.96602417346,2,0.633015648637,"2013_Mai_25_2305","PostTest",1,16,NA,1,"KritSit","FCB",2,"FCB","Team",0
"411",411,"K_M_21.avi",NA,NA,NA,NA,NA,NA,NA,NA,0,19,19,19,NA,NA,NA,NA,NA,NA,NA,NA,1,3.64892660939,1,0.350695130247,"2013_Mai_25_2305","PostTest",1,16,NA,1,"KritSit","FCB",1,"FCB","Team",1
"412",412,"K_M_22.avi",NA,NA,NA,NA,NA,NA,NA,NA,0,20,20,20,NA,NA,NA,NA,NA,NA,NA,NA,2,2.28267028351,1,0.566498256063,"2013_Mai_25_2305","PostTest",1,16,NA,1,"KritSit","FCB",1,"FCB","Team",0
"413",413,"K_D_24.avi",NA,NA,NA,NA,NA,NA,NA,NA,0,21,21,21,NA,NA,NA,NA,NA,NA,NA,NA,1,1.81612299887,2,0.449782863465,"2013_Mai_25_2305","PostTest",1,16,NA,1,"KritSit","FCB",2,"BVB","Team",1
"414",414,"K_M_23.avi",NA,NA,NA,NA,NA,NA,NA,NA,0,22,22,22,NA,NA,NA,NA,NA,NA,NA,NA,2,1.79952452057,3,0.732886721636,"2013_Mai_25_2305","PostTest",1,16,NA,1,"KritSit","FCB",3,"FCB","Gegner",1
"415",415,"K_M_25.avi",NA,NA,NA,NA,NA,NA,NA,NA,0,23,23,23,NA,NA,NA,NA,NA,NA,NA,NA,2,2.5990582602,1,0.199832380931,"2013_Mai_25_2305","PostTest",1,16,NA,1,"KritSit","FCB",1,"FCB","Team",0
"416",416,"K_D_26.avi",NA,NA,NA,NA,NA,NA,NA,NA,0,24,24,24,NA,NA,NA,NA,NA,NA,NA,NA,2,2.33257131842,2,0.316325398898,"2013_Mai_25_2305","PostTest",1,16,NA,1,"KritSit","FCB",2,"BVB","Gegner",1
"417",417,"K_D_27.avi",NA,NA,NA,NA,NA,NA,NA,NA,0,25,25,25,NA,NA,NA,NA,NA,NA,NA,NA,1,5.84416734529,1,0.370504072445,"2013_Mai_25_2305","PostTest",1,16,NA,1,"KritSit","FCB",1,"BVB","Gegner",0
"418",418,"K_D_28.avi",NA,NA,NA,NA,NA,NA,NA,NA,0,26,26,26,NA,NA,NA,NA,NA,NA,NA,NA,2,1.11633489731,3,0.366434002087,"2013_Mai_25_2305","PostTest",1,16,NA,1,"KritSit","FCB",3,"BVB","Gegner",1
"419",419,"K_M_29.avi",NA,NA,NA,NA,NA,NA,NA,NA,0,27,27,27,NA,NA,NA,NA,NA,NA,NA,NA,1,1.9494254158,1,0.299789219021,"2013_Mai_25_2305","PostTest",1,16,NA,1,"KritSit","FCB",1,"FCB","Team",1
"420",420,"K_M_30.avi",NA,NA,NA,NA,NA,NA,NA,NA,0,28,28,28,NA,NA,NA,NA,NA,NA,NA,NA,2,2.43256978191,3,0.333105185156,"2013_Mai_25_2305","PostTest",1,16,NA,1,"KritSit","FCB",3,"FCB","Team",0
"421",421,"K_M_31.avi",NA,NA,NA,NA,NA,NA,NA,NA,0,29,29,29,NA,NA,NA,NA,NA,NA,NA,NA,1,2.01597270044,2,0.249762749176,"2013_Mai_25_2305","PostTest",1,16,NA,1,"KritSit","FCB",2,"FCB","Gegner",0
"422",422,"K_M_32.avi",NA,NA,NA,NA,NA,NA,NA,NA,0,30,30,30,NA,NA,NA,NA,NA,NA,NA,NA,1,1.833478836,2,0.415111417792,"2013_Mai_25_2305","PostTest",1,16,NA,1,"KritSit","FCB",2,"FCB","Team",1
"423",423,"K_M_33.avi",NA,NA,NA,NA,NA,NA,NA,NA,0,31,31,31,NA,NA,NA,NA,NA,NA,NA,NA,2,2.98239524856,2,1.18290648672,"2013_Mai_25_2305","PostTest",1,16,NA,1,"KritSit","FCB",2,"FCB","Gegner",1
"424",424,"K_D_34.avi",NA,NA,NA,NA,NA,NA,NA,NA,0,32,32,32,NA,NA,NA,NA,NA,NA,NA,NA,1,2.6824741692,1,1.36652926559,"2013_Mai_25_2305","PostTest",1,16,NA,1,"KritSit","FCB",1,"BVB","Team",1
"425",425,"E_D_01.avi",0,0,0,0,NA,NA,NA,NA,NA,NA,NA,NA,1,6.13134797858,2,7.07745006698,NA,NA,NA,NA,NA,NA,NA,NA,"2013_Mai_25_2305","PostTest",1,17,NA,1,"Ecken","FCB",2,"BVB","Kopf",0
"427",427,"E_D_03.avi",0,2,2,2,NA,NA,NA,NA,NA,NA,NA,NA,1,9.23685580151,3,1.81264490319,NA,NA,NA,NA,NA,NA,NA,NA,"2013_Mai_25_2305","PostTest",1,17,NA,1,"Ecken","FCB",3,"BVB","Kopf",0
"428",428,"E_D_04.avi",0,3,3,3,NA,NA,NA,NA,NA,NA,NA,NA,2,5.1982838601,2,5.7179750499,NA,NA,NA,NA,NA,NA,NA,NA,"2013_Mai_25_2305","PostTest",1,17,NA,1,"Ecken","FCB",2,"BVB","Kopf",1
"429",429,"E_M_05.avi",0,4,4,4,NA,NA,NA,NA,NA,NA,NA,NA,1,3.01233005871,1,2.43909016369,NA,NA,NA,NA,NA,NA,NA,NA,"2013_Mai_25_2305","PostTest",1,17,NA,1,"Ecken","FCB",1,"FCB","Fuss",1
"430",430,"E_M_06.avi",0,5,5,5,NA,NA,NA,NA,NA,NA,NA,NA,2,2.26589105599,4,5.91788956418,NA,NA,NA,NA,NA,NA,NA,NA,"2013_Mai_25_2305","PostTest",1,17,NA,1,"Ecken","FCB",4,"FCB","Kopf",1
"431",431,"E_D_07.avi",0,6,6,6,NA,NA,NA,NA,NA,NA,NA,NA,1,5.38476482346,1,2.30576763248,NA,NA,NA,NA,NA,NA,NA,NA,"2013_Mai_25_2305","PostTest",1,17,NA,1,"Ecken","FCB",1,"BVB","Kopf",0
"432",432,"T_D_01.avi",NA,NA,NA,NA,0,0,0,0,NA,NA,NA,NA,NA,NA,NA,NA,2,7.41088909345,4,3.65195827961,NA,NA,NA,NA,"2013_Mai_25_2305","PostTest",1,17,NA,1,"Tor","FCB",4,"BVB","daneben",1
"433",433,"T_D_02.avi",NA,NA,NA,NA,0,1,1,1,NA,NA,NA,NA,NA,NA,NA,NA,2,10.1432545198,2,3.19880822842,NA,NA,NA,NA,"2013_Mai_25_2305","PostTest",1,17,NA,1,"Tor","FCB",2,"BVB","daneben",1
"434",434,"T_D_03.avi",NA,NA,NA,NA,0,2,2,2,NA,NA,NA,NA,NA,NA,NA,NA,1,5.23812803024,4,3.27895444812,NA,NA,NA,NA,"2013_Mai_25_2305","PostTest",1,17,NA,1,"Tor","FCB",4,"BVB","auf",1
"435",435,"T_M_04.avi",NA,NA,NA,NA,0,3,3,3,NA,NA,NA,NA,NA,NA,NA,NA,1,12.3423675355,3,5.05174819705,NA,NA,NA,NA,"2013_Mai_25_2305","PostTest",1,17,NA,1,"Tor","FCB",3,"FCB","auf",1
"436",436,"T_D_05.avi",NA,NA,NA,NA,0,4,4,4,NA,NA,NA,NA,NA,NA,NA,NA,1,2.67917626402,4,3.47863932427,NA,NA,NA,NA,"2013_Mai_25_2305","PostTest",1,17,NA,1,"Tor","FCB",4,"BVB","auf",1
"437",437,"T_D_06.avi",NA,NA,NA,NA,0,5,5,5,NA,NA,NA,NA,NA,NA,NA,NA,1,3.79872833,4,1.81244599523,NA,NA,NA,NA,"2013_Mai_25_2305","PostTest",1,17,NA,1,"Tor","FCB",4,"BVB","auf",1
"438",438,"T_M_07.avi",NA,NA,NA,NA,0,6,6,6,NA,NA,NA,NA,NA,NA,NA,NA,1,4.22528477781,3,2.02587172392,NA,NA,NA,NA,"2013_Mai_25_2305","PostTest",1,17,NA,1,"Tor","FCB",3,"FCB","auf",1
"439",439,"T_M_08.avi",NA,NA,NA,NA,0,7,7,7,NA,NA,NA,NA,NA,NA,NA,NA,2,3.37219395202,3,2.34575958676,NA,NA,NA,NA,"2013_Mai_25_2305","PostTest",1,17,NA,1,"Tor","FCB",3,"FCB","daneben",1
"440",440,"T_M_09.avi",NA,NA,NA,NA,0,8,8,8,NA,NA,NA,NA,NA,NA,NA,NA,1,9.89004496382,2,2.31912910719,NA,NA,NA,NA,"2013_Mai_25_2305","PostTest",1,17,NA,1,"Tor","FCB",2,"FCB","auf",1
"441",441,"T_M_10.avi",NA,NA,NA,NA,0,9,9,9,NA,NA,NA,NA,NA,NA,NA,NA,1,4.41187720786,5,4.3318667596,NA,NA,NA,NA,"2013_Mai_25_2305","PostTest",1,17,NA,1,"Tor","FCB",5,"FCB","auf",1
"442",442,"T_M_11.avi",NA,NA,NA,NA,0,10,10,10,NA,NA,NA,NA,NA,NA,NA,NA,1,4.2385543414,5,1.27943858787,NA,NA,NA,NA,"2013_Mai_25_2305","PostTest",1,17,NA,1,"Tor","FCB",5,"FCB","auf",1
"443",443,"T_M_12.avi",NA,NA,NA,NA,0,11,11,11,NA,NA,NA,NA,NA,NA,NA,NA,2,4.57184809801,2,2.86558040198,NA,NA,NA,NA,"2013_Mai_25_2305","PostTest",1,17,NA,1,"Tor","FCB",2,"FCB","auf",0
"444",444,"T_D_13.avi",NA,NA,NA,NA,0,12,12,12,NA,NA,NA,NA,NA,NA,NA,NA,2,2.91900506908,3,2.34580931375,NA,NA,NA,NA,"2013_Mai_25_2305","PostTest",1,17,NA,1,"Tor","FCB",3,"BVB","daneben",1
"445",445,"K_M_01.avi",NA,NA,NA,NA,NA,NA,NA,NA,0,0,0,0,NA,NA,NA,NA,NA,NA,NA,NA,1,8.90375033698,1,1.82585552074,"2013_Mai_25_2305","PostTest",1,17,NA,1,"KritSit","FCB",1,"FCB","Gegner",0
"446",446,"K_D_02.avi",NA,NA,NA,NA,NA,NA,NA,NA,0,1,1,1,NA,NA,NA,NA,NA,NA,NA,NA,2,6.45114867951,1,0.906266857939,"2013_Mai_25_2305","PostTest",1,17,NA,1,"KritSit","FCB",1,"BVB","Gegner",1
"447",447,"K_D_03.avi",NA,NA,NA,NA,NA,NA,NA,NA,0,2,2,2,NA,NA,NA,NA,NA,NA,NA,NA,1,8.70380760683,3,3.0521465717,"2013_Mai_25_2305","PostTest",1,17,NA,1,"KritSit","FCB",3,"BVB","Gegner",0
"448",448,"K_D_04.avi",NA,NA,NA,NA,NA,NA,NA,NA,0,3,3,3,NA,NA,NA,NA,NA,NA,NA,NA,1,2.61232894125,2,1.29294812609,"2013_Mai_25_2305","PostTest",1,17,NA,1,"KritSit","FCB",2,"BVB","Team",1
"449",449,"K_D_05.avi",NA,NA,NA,NA,NA,NA,NA,NA,0,4,4,4,NA,NA,NA,NA,NA,NA,NA,NA,1,1.55949960121,5,1.85261478763,"2013_Mai_25_2305","PostTest",1,17,NA,1,"KritSit","FCB",5,"BVB","Team",1
"450",450,"K_M_07.avi",NA,NA,NA,NA,NA,NA,NA,NA,0,5,5,5,NA,NA,NA,NA,NA,NA,NA,NA,1,1.4528793464,5,1.47922654974,"2013_Mai_25_2305","PostTest",1,17,NA,1,"KritSit","FCB",5,"FCB","Team",1
"451",451,"K_D_08.avi",NA,NA,NA,NA,NA,NA,NA,NA,0,6,6,6,NA,NA,NA,NA,NA,NA,NA,NA,1,2.90588496583,4,1.63916531291,"2013_Mai_25_2305","PostTest",1,17,NA,1,"KritSit","FCB",4,"BVB","Team",1
"452",452,"K_D_09.avi",NA,NA,NA,NA,NA,NA,NA,NA,0,7,7,7,NA,NA,NA,NA,NA,NA,NA,NA,2,3.38562079817,1,1.74572019628,"2013_Mai_25_2305","PostTest",1,17,NA,1,"KritSit","FCB",1,"BVB","Team",0
"453",453,"K_D_10.avi",NA,NA,NA,NA,NA,NA,NA,NA,0,8,8,8,NA,NA,NA,NA,NA,NA,NA,NA,2,2.46588658614,2,1.89267630383,"2013_Mai_25_2305","PostTest",1,17,NA,1,"KritSit","FCB",2,"BVB","Gegner",1
"454",454,"K_D_11.avi",NA,NA,NA,NA,NA,NA,NA,NA,0,9,9,9,NA,NA,NA,NA,NA,NA,NA,NA,1,1.94604202489,5,1.10619534047,"2013_Mai_25_2305","PostTest",1,17,NA,1,"KritSit","FCB",5,"BVB","Team",1
"455",455,"K_D_12.avi",NA,NA,NA,NA,NA,NA,NA,NA,0,10,10,10,NA,NA,NA,NA,NA,NA,NA,NA,2,1.85260165747,5,1.07956458153,"2013_Mai_25_2305","PostTest",1,17,NA,1,"KritSit","FCB",5,"BVB","Team",0
"456",456,"K_M_13.avi",NA,NA,NA,NA,NA,NA,NA,NA,0,11,11,11,NA,NA,NA,NA,NA,NA,NA,NA,1,1.85221613361,4,1.27945786406,"2013_Mai_25_2305","PostTest",1,17,NA,1,"KritSit","FCB",4,"FCB","Gegner",0
"457",457,"K_M_14.avi",NA,NA,NA,NA,NA,NA,NA,NA,0,12,12,12,NA,NA,NA,NA,NA,NA,NA,NA,2,5.02498976825,3,2.38587725535,"2013_Mai_25_2305","PostTest",1,17,NA,1,"KritSit","FCB",3,"FCB","Gegner",1
"458",458,"K_D_15.avi",NA,NA,NA,NA,NA,NA,NA,NA,0,13,13,13,NA,NA,NA,NA,NA,NA,NA,NA,1,3.55885007731,3,2.47903294972,"2013_Mai_25_2305","PostTest",1,17,NA,1,"KritSit","FCB",3,"BVB","Gegner",0
"459",459,"K_D_16.avi",NA,NA,NA,NA,NA,NA,NA,NA,0,14,14,14,NA,NA,NA,NA,NA,NA,NA,NA,1,1.50602716267,5,1.23964246853,"2013_Mai_25_2305","PostTest",1,17,NA,1,"KritSit","FCB",5,"BVB","Team",1
"460",460,"K_D_17.avi",NA,NA,NA,NA,NA,NA,NA,NA,0,15,15,15,NA,NA,NA,NA,NA,NA,NA,NA,1,1.22612203506,5,0.866385532239,"2013_Mai_25_2305","PostTest",1,17,NA,1,"KritSit","FCB",5,"BVB","Gegner",0
"461",461,"K_D_18.avi",NA,NA,NA,NA,NA,NA,NA,NA,0,16,16,16,NA,NA,NA,NA,NA,NA,NA,NA,2,4.11864049761,1,2.07919134974,"2013_Mai_25_2305","PostTest",1,17,NA,1,"KritSit","FCB",1,"BVB","Team",0
"462",462,"K_D_19.avi",NA,NA,NA,NA,NA,NA,NA,NA,0,17,17,17,NA,NA,NA,NA,NA,NA,NA,NA,1,1.50618109285,4,1.46607655442,"2013_Mai_25_2305","PostTest",1,17,NA,1,"KritSit","FCB",4,"BVB","Team",1
"463",463,"K_M_20.avi",NA,NA,NA,NA,NA,NA,NA,NA,0,18,18,18,NA,NA,NA,NA,NA,NA,NA,NA,1,2.51916626275,5,0.906264623018,"2013_Mai_25_2305","PostTest",1,17,NA,1,"KritSit","FCB",5,"FCB","Team",1
"464",464,"K_M_21.avi",NA,NA,NA,NA,NA,NA,NA,NA,0,19,19,19,NA,NA,NA,NA,NA,NA,NA,NA,1,1.81279911274,5,1.5859697252,"2013_Mai_25_2305","PostTest",1,17,NA,1,"KritSit","FCB",5,"FCB","Team",1
"465",465,"K_M_22.avi",NA,NA,NA,NA,NA,NA,NA,NA,0,20,20,20,NA,NA,NA,NA,NA,NA,NA,NA,1,2.9456863931,4,1.23931225896,"2013_Mai_25_2305","PostTest",1,17,NA,1,"KritSit","FCB",4,"FCB","Team",1
"466",466,"K_D_24.avi",NA,NA,NA,NA,NA,NA,NA,NA,0,21,21,21,NA,NA,NA,NA,NA,NA,NA,NA,1,1.3462269646,5,1.4393952304,"2013_Mai_25_2305","PostTest",1,17,NA,1,"KritSit","FCB",5,"BVB","Team",1
"467",467,"K_M_23.avi",NA,NA,NA,NA,NA,NA,NA,NA,0,22,22,22,NA,NA,NA,NA,NA,NA,NA,NA,2,4.73160750878,2,2.37262445367,"2013_Mai_25_2305","PostTest",1,17,NA,1,"KritSit","FCB",2,"FCB","Gegner",1
"468",468,"K_M_25.avi",NA,NA,NA,NA,NA,NA,NA,NA,0,23,23,23,NA,NA,NA,NA,NA,NA,NA,NA,1,4.97165812973,3,1.38604766807,"2013_Mai_25_2305","PostTest",1,17,NA,1,"KritSit","FCB",3,"FCB","Team",1
"469",469,"K_D_26.avi",NA,NA,NA,NA,NA,NA,NA,NA,0,24,24,24,NA,NA,NA,NA,NA,NA,NA,NA,2,2.63917509069,1,1.27939500691,"2013_Mai_25_2305","PostTest",1,17,NA,1,"KritSit","FCB",1,"BVB","Gegner",1
"470",470,"K_D_27.avi",NA,NA,NA,NA,NA,NA,NA,NA,0,25,25,25,NA,NA,NA,NA,NA,NA,NA,NA,1,4.03866832237,3,3.45203650185,"2013_Mai_25_2305","PostTest",1,17,NA,1,"KritSit","FCB",3,"BVB","Gegner",0
"471",471,"K_D_28.avi",NA,NA,NA,NA,NA,NA,NA,NA,0,26,26,26,NA,NA,NA,NA,NA,NA,NA,NA,1,2.58568365532,4,3.6521353971,"2013_Mai_25_2305","PostTest",1,17,NA,1,"KritSit","FCB",4,"BVB","Gegner",0
"472",472,"K_M_29.avi",NA,NA,NA,NA,NA,NA,NA,NA,0,27,27,27,NA,NA,NA,NA,NA,NA,NA,NA,2,2.13266322954,1,1.26607152585,"2013_Mai_25_2305","PostTest",1,17,NA,1,"KritSit","FCB",1,"FCB","Team",0
"473",473,"K_M_30.avi",NA,NA,NA,NA,NA,NA,NA,NA,0,28,28,28,NA,NA,NA,NA,NA,NA,NA,NA,1,1.46624640841,4,2.10583272455,"2013_Mai_25_2305","PostTest",1,17,NA,1,"KritSit","FCB",4,"FCB","Team",1
"474",474,"K_M_31.avi",NA,NA,NA,NA,NA,NA,NA,NA,0,29,29,29,NA,NA,NA,NA,NA,NA,NA,NA,1,4.71839158329,3,0.559724210759,"2013_Mai_25_2305","PostTest",1,17,NA,1,"KritSit","FCB",3,"FCB","Gegner",0
"475",475,"K_M_32.avi",NA,NA,NA,NA,NA,NA,NA,NA,0,30,30,30,NA,NA,NA,NA,NA,NA,NA,NA,2,5.95799326451,2,3.10552821657,"2013_Mai_25_2305","PostTest",1,17,NA,1,"KritSit","FCB",2,"FCB","Team",0
"476",476,"K_M_33.avi",NA,NA,NA,NA,NA,NA,NA,NA,0,31,31,31,NA,NA,NA,NA,NA,NA,NA,NA,2,2.79908368242,1,0.519717450123,"2013_Mai_25_2305","PostTest",1,17,NA,1,"KritSit","FCB",1,"FCB","Gegner",1
"477",477,"K_D_34.avi",NA,NA,NA,NA,NA,NA,NA,NA,0,32,32,32,NA,NA,NA,NA,NA,NA,NA,NA,1,1.0663201608,4,0.506239200792,"2013_Mai_25_2305","PostTest",1,17,NA,1,"KritSit","FCB",4,"BVB","Team",1
"478",478,"E_D_01.avi",0,0,0,0,NA,NA,NA,NA,NA,NA,NA,NA,2,6.56451699867,4,4.61517427494,NA,NA,NA,NA,NA,NA,NA,NA,"2013_Mai_25_2304","PostTest",1,18,NA,1,"Ecken","FCB",4,"BVB","Kopf",1
"480",480,"E_D_03.avi",0,2,2,2,NA,NA,NA,NA,NA,NA,NA,NA,2,4.81506616064,1,1.6494046031,NA,NA,NA,NA,NA,NA,NA,NA,"2013_Mai_25_2304","PostTest",1,18,NA,1,"Ecken","FCB",1,"BVB","Kopf",1
"481",481,"E_D_04.avi",0,3,3,3,NA,NA,NA,NA,NA,NA,NA,NA,1,8.76384596366,2,1.29941403167,NA,NA,NA,NA,NA,NA,NA,NA,"2013_Mai_25_2304","PostTest",1,18,NA,1,"Ecken","FCB",2,"BVB","Kopf",0
"482",482,"E_M_05.avi",0,4,4,4,NA,NA,NA,NA,NA,NA,NA,NA,2,2.91574292263,5,2.76556014801,NA,NA,NA,NA,NA,NA,NA,NA,"2013_Mai_25_2304","PostTest",1,18,NA,1,"Ecken","FCB",5,"FCB","Fuss",0
"483",483,"E_M_06.avi",0,5,5,5,NA,NA,NA,NA,NA,NA,NA,NA,2,1.16624626873,5,9.13009195303,NA,NA,NA,NA,NA,NA,NA,NA,"2013_Mai_25_2304","PostTest",1,18,NA,1,"Ecken","FCB",5,"FCB","Kopf",1
"484",484,"E_D_07.avi",0,6,6,6,NA,NA,NA,NA,NA,NA,NA,NA,1,6.24781725052,2,9.03045135625,NA,NA,NA,NA,NA,NA,NA,NA,"2013_Mai_25_2304","PostTest",1,18,NA,1,"Ecken","FCB",2,"BVB","Kopf",0
"485",485,"T_D_01.avi",NA,NA,NA,NA,0,0,0,0,NA,NA,NA,NA,NA,NA,NA,NA,2,3.79874397444,5,5.2149248019,NA,NA,NA,NA,"2013_Mai_25_2304","PostTest",1,18,NA,1,"Tor","FCB",5,"BVB","daneben",1
"486",486,"T_D_02.avi",NA,NA,NA,NA,0,1,1,1,NA,NA,NA,NA,NA,NA,NA,NA,2,15.3783335592,2,1.86586563376,NA,NA,NA,NA,"2013_Mai_25_2304","PostTest",1,18,NA,1,"Tor","FCB",2,"BVB","daneben",1
"487",487,"T_D_03.avi",NA,NA,NA,NA,0,2,2,2,NA,NA,NA,NA,NA,NA,NA,NA,1,1.64955378407,4,1.61591096075,NA,NA,NA,NA,"2013_Mai_25_2304","PostTest",1,18,NA,1,"Tor","FCB",4,"BVB","auf",1
"488",488,"T_M_04.avi",NA,NA,NA,NA,0,3,3,3,NA,NA,NA,NA,NA,NA,NA,NA,2,23.5923504244,3,2.44905595544,NA,NA,NA,NA,"2013_Mai_25_2304","PostTest",1,18,NA,1,"Tor","FCB",3,"FCB","auf",0
"489",489,"T_D_05.avi",NA,NA,NA,NA,0,4,4,4,NA,NA,NA,NA,NA,NA,NA,NA,1,1.68278398512,5,1.18286961052,NA,NA,NA,NA,"2013_Mai_25_2304","PostTest",1,18,NA,1,"Tor","FCB",5,"BVB","auf",1
"490",490,"T_D_06.avi",NA,NA,NA,NA,0,5,5,5,NA,NA,NA,NA,NA,NA,NA,NA,1,1.49938469833,5,0.649881199985,NA,NA,NA,NA,"2013_Mai_25_2304","PostTest",1,18,NA,1,"Tor","FCB",5,"BVB","auf",1
"491",491,"T_M_07.avi",NA,NA,NA,NA,0,6,6,6,NA,NA,NA,NA,NA,NA,NA,NA,1,2.7824413438,5,0.982948670851,NA,NA,NA,NA,"2013_Mai_25_2304","PostTest",1,18,NA,1,"Tor","FCB",5,"FCB","auf",1
"492",492,"T_M_08.avi",NA,NA,NA,NA,0,7,7,7,NA,NA,NA,NA,NA,NA,NA,NA,2,5.63185907706,5,0.74924187292,NA,NA,NA,NA,"2013_Mai_25_2304","PostTest",1,18,NA,1,"Tor","FCB",5,"FCB","daneben",1
"493",493,"T_M_09.avi",NA,NA,NA,NA,0,8,8,8,NA,NA,NA,NA,NA,NA,NA,NA,1,11.1130193921,5,4.84836089503,NA,NA,NA,NA,"2013_Mai_25_2304","PostTest",1,18,NA,1,"Tor","FCB",5,"FCB","auf",1
"494",494,"T_M_10.avi",NA,NA,NA,NA,0,9,9,9,NA,NA,NA,NA,NA,NA,NA,NA,1,2.69889385383,5,0.983053712134,NA,NA,NA,NA,"2013_Mai_25_2304","PostTest",1,18,NA,1,"Tor","FCB",5,"FCB","auf",1
"495",495,"T_M_11.avi",NA,NA,NA,NA,0,10,10,10,NA,NA,NA,NA,NA,NA,NA,NA,1,1.58282155972,5,0.766339017948,NA,NA,NA,NA,"2013_Mai_25_2304","PostTest",1,18,NA,1,"Tor","FCB",5,"FCB","auf",1
"496",496,"T_M_12.avi",NA,NA,NA,NA,0,11,11,11,NA,NA,NA,NA,NA,NA,NA,NA,2,4.69834350455,3,2.39925716816,NA,NA,NA,NA,"2013_Mai_25_2304","PostTest",1,18,NA,1,"Tor","FCB",3,"FCB","auf",0
"497",497,"T_D_13.avi",NA,NA,NA,NA,0,12,12,12,NA,NA,NA,NA,NA,NA,NA,NA,2,4.28182157229,2,2.24929397451,NA,NA,NA,NA,"2013_Mai_25_2304","PostTest",1,18,NA,1,"Tor","FCB",2,"BVB","daneben",1
"498",498,"K_M_01.avi",NA,NA,NA,NA,NA,NA,NA,NA,0,0,0,0,NA,NA,NA,NA,NA,NA,NA,NA,1,2.79849589822,4,2.43239741364,"2013_Mai_25_2304","PostTest",1,18,NA,1,"KritSit","FCB",4,"FCB","Gegner",0
"499",499,"K_D_02.avi",NA,NA,NA,NA,NA,NA,NA,NA,0,1,1,1,NA,NA,NA,NA,NA,NA,NA,NA,1,1.79948959994,4,2.44904813321,"2013_Mai_25_2304","PostTest",1,18,NA,1,"KritSit","FCB",4,"BVB","Gegner",0
"500",500,"K_D_03.avi",NA,NA,NA,NA,NA,NA,NA,NA,0,2,2,2,NA,NA,NA,NA,NA,NA,NA,NA,2,4.64856958077,3,2.74901083797,"2013_Mai_25_2304","PostTest",1,18,NA,1,"KritSit","FCB",3,"BVB","Gegner",1
"501",501,"K_D_04.avi",NA,NA,NA,NA,NA,NA,NA,NA,0,3,3,3,NA,NA,NA,NA,NA,NA,NA,NA,1,8.28063846103,2,2.26581618614,"2013_Mai_25_2304","PostTest",1,18,NA,1,"KritSit","FCB",2,"BVB","Team",1
"502",502,"K_D_05.avi",NA,NA,NA,NA,NA,NA,NA,NA,0,4,4,4,NA,NA,NA,NA,NA,NA,NA,NA,1,1.24971665393,5,0.882842931155,"2013_Mai_25_2304","PostTest",1,18,NA,1,"KritSit","FCB",5,"BVB","Team",1
"503",503,"K_M_07.avi",NA,NA,NA,NA,NA,NA,NA,NA,0,5,5,5,NA,NA,NA,NA,NA,NA,NA,NA,2,8.86392237002,1,2.34897507923,"2013_Mai_25_2304","PostTest",1,18,NA,1,"KritSit","FCB",1,"FCB","Team",0
"504",504,"K_D_08.avi",NA,NA,NA,NA,NA,NA,NA,NA,0,6,6,6,NA,NA,NA,NA,NA,NA,NA,NA,1,8.31394800177,2,1.33280486766,"2013_Mai_25_2304","PostTest",1,18,NA,1,"KritSit","FCB",2,"BVB","Team",1
"505",505,"K_D_09.avi",NA,NA,NA,NA,NA,NA,NA,NA,0,7,7,7,NA,NA,NA,NA,NA,NA,NA,NA,1,2.11599686552,3,2.59907949195,"2013_Mai_25_2304","PostTest",1,18,NA,1,"KritSit","FCB",3,"BVB","Team",1
"506",506,"K_D_10.avi",NA,NA,NA,NA,NA,NA,NA,NA,0,8,8,8,NA,NA,NA,NA,NA,NA,NA,NA,2,3.48206573741,4,2.11599295441,"2013_Mai_25_2304","PostTest",1,18,NA,1,"KritSit","FCB",4,"BVB","Gegner",1
"507",507,"K_D_11.avi",NA,NA,NA,NA,NA,NA,NA,NA,0,9,9,9,NA,NA,NA,NA,NA,NA,NA,NA,1,1.36626163381,5,0.949574038041,"2013_Mai_25_2304","PostTest",1,18,NA,1,"KritSit","FCB",5,"BVB","Team",1
"508",508,"K_D_12.avi",NA,NA,NA,NA,NA,NA,NA,NA,0,10,10,10,NA,NA,NA,NA,NA,NA,NA,NA,1,5.5480456315,3,2.016147583,"2013_Mai_25_2304","PostTest",1,18,NA,1,"KritSit","FCB",3,"BVB","Team",1
"509",509,"K_M_13.avi",NA,NA,NA,NA,NA,NA,NA,NA,0,11,11,11,NA,NA,NA,NA,NA,NA,NA,NA,1,1.69948359359,5,5.09822672993,"2013_Mai_25_2304","PostTest",1,18,NA,1,"KritSit","FCB",5,"FCB","Gegner",0
"510",510,"K_M_14.avi",NA,NA,NA,NA,NA,NA,NA,NA,0,12,12,12,NA,NA,NA,NA,NA,NA,NA,NA,1,4.31271907463,4,1.23533018861,"2013_Mai_25_2304","PostTest",1,18,NA,1,"KritSit","FCB",4,"FCB","Gegner",0
"511",511,"K_D_15.avi",NA,NA,NA,NA,NA,NA,NA,NA,0,13,13,13,NA,NA,NA,NA,NA,NA,NA,NA,1,8.1306727531,2,1.21615121475,"2013_Mai_25_2304","PostTest",1,18,NA,1,"KritSit","FCB",2,"BVB","Gegner",0
"512",512,"K_D_16.avi",NA,NA,NA,NA,NA,NA,NA,NA,0,14,14,14,NA,NA,NA,NA,NA,NA,NA,NA,1,1.51619130364,5,5.48147823257,"2013_Mai_25_2304","PostTest",1,18,NA,1,"KritSit","FCB",5,"BVB","Team",1
"513",513,"K_D_17.avi",NA,NA,NA,NA,NA,NA,NA,NA,0,15,15,15,NA,NA,NA,NA,NA,NA,NA,NA,1,0.949775460289,5,0.549626279318,"2013_Mai_25_2304","PostTest",1,18,NA,1,"KritSit","FCB",5,"BVB","Gegner",0
"514",514,"K_D_18.avi",NA,NA,NA,NA,NA,NA,NA,NA,0,16,16,16,NA,NA,NA,NA,NA,NA,NA,NA,2,6.93108788966,2,1.549377365,"2013_Mai_25_2304","PostTest",1,18,NA,1,"KritSit","FCB",2,"BVB","Team",0
"515",515,"K_D_19.avi",NA,NA,NA,NA,NA,NA,NA,NA,0,17,17,17,NA,NA,NA,NA,NA,NA,NA,NA,1,3.23230410569,4,0.716290757624,"2013_Mai_25_2304","PostTest",1,18,NA,1,"KritSit","FCB",4,"BVB","Team",1
"516",516,"K_M_20.avi",NA,NA,NA,NA,NA,NA,NA,NA,0,18,18,18,NA,NA,NA,NA,NA,NA,NA,NA,1,10.3799488482,3,2.46573461152,"2013_Mai_25_2304","PostTest",1,18,NA,1,"KritSit","FCB",3,"FCB","Team",1
"517",517,"K_M_21.avi",NA,NA,NA,NA,NA,NA,NA,NA,0,19,19,19,NA,NA,NA,NA,NA,NA,NA,NA,1,1.91607927823,4,1.76592248456,"2013_Mai_25_2304","PostTest",1,18,NA,1,"KritSit","FCB",4,"FCB","Team",1
"518",518,"K_M_22.avi",NA,NA,NA,NA,NA,NA,NA,NA,0,20,20,20,NA,NA,NA,NA,NA,NA,NA,NA,1,1.14962795551,5,0.732881413699,"2013_Mai_25_2304","PostTest",1,18,NA,1,"KritSit","FCB",5,"FCB","Team",1
"519",519,"K_D_24.avi",NA,NA,NA,NA,NA,NA,NA,NA,0,21,21,21,NA,NA,NA,NA,NA,NA,NA,NA,1,1.21606936077,4,2.46574047819,"2013_Mai_25_2304","PostTest",1,18,NA,1,"KritSit","FCB",4,"BVB","Team",1
"520",520,"K_M_23.avi",NA,NA,NA,NA,NA,NA,NA,NA,0,22,22,22,NA,NA,NA,NA,NA,NA,NA,NA,1,6.23107769284,3,1.36625045921,"2013_Mai_25_2304","PostTest",1,18,NA,1,"KritSit","FCB",3,"FCB","Gegner",0
"521",521,"K_M_25.avi",NA,NA,NA,NA,NA,NA,NA,NA,0,23,23,23,NA,NA,NA,NA,NA,NA,NA,NA,2,4.86508927811,2,1.06626819889,"2013_Mai_25_2304","PostTest",1,18,NA,1,"KritSit","FCB",2,"FCB","Team",0
"522",522,"K_D_26.avi",NA,NA,NA,NA,NA,NA,NA,NA,0,24,24,24,NA,NA,NA,NA,NA,NA,NA,NA,1,3.83195461993,1,1.64951327613,"2013_Mai_25_2304","PostTest",1,18,NA,1,"KritSit","FCB",1,"BVB","Gegner",0
"523",523,"K_D_27.avi",NA,NA,NA,NA,NA,NA,NA,NA,0,25,25,25,NA,NA,NA,NA,NA,NA,NA,NA,2,2.56586186233,1,0.733196258184,"2013_Mai_25_2304","PostTest",1,18,NA,1,"KritSit","FCB",1,"BVB","Gegner",1
"524",524,"K_D_28.avi",NA,NA,NA,NA,NA,NA,NA,NA,0,26,26,26,NA,NA,NA,NA,NA,NA,NA,NA,2,2.4492003872,1,0.832988829586,"2013_Mai_25_2304","PostTest",1,18,NA,1,"KritSit","FCB",1,"BVB","Gegner",1
"525",525,"K_M_29.avi",NA,NA,NA,NA,NA,NA,NA,NA,0,27,27,27,NA,NA,NA,NA,NA,NA,NA,NA,2,3.23215855646,1,1.29966657774,"2013_Mai_25_2304","PostTest",1,18,NA,1,"KritSit","FCB",1,"FCB","Team",0
"526",526,"K_M_30.avi",NA,NA,NA,NA,NA,NA,NA,NA,0,28,28,28,NA,NA,NA,NA,NA,NA,NA,NA,1,1.56616916396,4,0.732976956569,"2013_Mai_25_2304","PostTest",1,18,NA,1,"KritSit","FCB",4,"FCB","Team",1
"527",527,"K_M_31.avi",NA,NA,NA,NA,NA,NA,NA,NA,0,29,29,29,NA,NA,NA,NA,NA,NA,NA,NA,1,2.38257851207,4,3.36547354482,"2013_Mai_25_2304","PostTest",1,18,NA,1,"KritSit","FCB",4,"FCB","Gegner",0
"528",528,"K_M_32.avi",NA,NA,NA,NA,NA,NA,NA,NA,0,30,30,30,NA,NA,NA,NA,NA,NA,NA,NA,2,6.76447453517,2,1.0162084846,"2013_Mai_25_2304","PostTest",1,18,NA,1,"KritSit","FCB",2,"FCB","Team",0
"529",529,"K_M_33.avi",NA,NA,NA,NA,NA,NA,NA,NA,0,31,31,31,NA,NA,NA,NA,NA,NA,NA,NA,1,3.50519605145,3,3.03243484856,"2013_Mai_25_2304","PostTest",1,18,NA,1,"KritSit","FCB",3,"FCB","Gegner",0
"530",530,"K_D_34.avi",NA,NA,NA,NA,NA,NA,NA,NA,0,32,32,32,NA,NA,NA,NA,NA,NA,NA,NA,1,2.99904121893,2,1.03290446132,"2013_Mai_25_2304","PostTest",1,18,NA,1,"KritSit","FCB",2,"BVB","Team",1
"531",531,"E_D_01.avi",0,0,0,0,NA,NA,NA,NA,NA,NA,NA,NA,2,45.2842126583,1,2.94886556811,NA,NA,NA,NA,NA,NA,NA,NA,"2013_Mai_25_2304","PostTest",1,19,NA,1,"Ecken","FCB",1,"BVB","Kopf",1
"533",533,"E_D_03.avi",0,2,2,2,NA,NA,NA,NA,NA,NA,NA,NA,1,0.748624196651,1,0.46643637669,NA,NA,NA,NA,NA,NA,NA,NA,"2013_Mai_25_2304","PostTest",1,19,NA,1,"Ecken","FCB",1,"BVB","Kopf",0
"534",534,"E_D_04.avi",0,3,3,3,NA,NA,NA,NA,NA,NA,NA,NA,1,0.533193743898,1,0.383107908966,NA,NA,NA,NA,NA,NA,NA,NA,"2013_Mai_25_2304","PostTest",1,19,NA,1,"Ecken","FCB",1,"BVB","Kopf",0
"535",535,"E_M_05.avi",0,4,4,4,NA,NA,NA,NA,NA,NA,NA,NA,1,0.383269940733,1,0.416425551292,NA,NA,NA,NA,NA,NA,NA,NA,"2013_Mai_25_2304","PostTest",1,19,NA,1,"Ecken","FCB",1,"FCB","Fuss",1
"536",536,"E_M_06.avi",0,5,5,5,NA,NA,NA,NA,NA,NA,NA,NA,1,0.383235578824,1,0.366482611617,NA,NA,NA,NA,NA,NA,NA,NA,"2013_Mai_25_2304","PostTest",1,19,NA,1,"Ecken","FCB",1,"FCB","Kopf",0
"537",537,"E_D_07.avi",0,6,6,6,NA,NA,NA,NA,NA,NA,NA,NA,1,0.316600294171,1,0.33313982643,NA,NA,NA,NA,NA,NA,NA,NA,"2013_Mai_25_2304","PostTest",1,19,NA,1,"Ecken","FCB",1,"BVB","Kopf",0
"538",538,"T_D_01.avi",NA,NA,NA,NA,0,0,0,0,NA,NA,NA,NA,NA,NA,NA,NA,2,6.1479014791,4,2.46572231946,NA,NA,NA,NA,"2013_Mai_25_2304","PostTest",1,19,NA,1,"Tor","FCB",4,"BVB","daneben",1
"539",539,"T_D_02.avi",NA,NA,NA,NA,0,1,1,1,NA,NA,NA,NA,NA,NA,NA,NA,2,1.81607243379,4,1.36606049093,NA,NA,NA,NA,"2013_Mai_25_2304","PostTest",1,19,NA,1,"Tor","FCB",4,"BVB","daneben",1
"540",540,"T_D_03.avi",NA,NA,NA,NA,0,2,2,2,NA,NA,NA,NA,NA,NA,NA,NA,2,0.782943642279,5,1.30001969524,NA,NA,NA,NA,"2013_Mai_25_2304","PostTest",1,19,NA,1,"Tor","FCB",5,"BVB","auf",0
"541",541,"T_M_04.avi",NA,NA,NA,NA,0,3,3,3,NA,NA,NA,NA,NA,NA,NA,NA,2,2.51630193223,2,1.19900853321,NA,NA,NA,NA,"2013_Mai_25_2304","PostTest",1,19,NA,1,"Tor","FCB",2,"FCB","auf",0
"542",542,"T_D_05.avi",NA,NA,NA,NA,0,4,4,4,NA,NA,NA,NA,NA,NA,NA,NA,2,1.41622552587,4,1.13287806132,NA,NA,NA,NA,"2013_Mai_25_2304","PostTest",1,19,NA,1,"Tor","FCB",4,"BVB","auf",0
"543",543,"T_D_06.avi",NA,NA,NA,NA,0,5,5,5,NA,NA,NA,NA,NA,NA,NA,NA,1,2.73244811841,3,2.482366893,NA,NA,NA,NA,"2013_Mai_25_2304","PostTest",1,19,NA,1,"Tor","FCB",3,"BVB","auf",1
"544",544,"T_M_07.avi",NA,NA,NA,NA,0,6,6,6,NA,NA,NA,NA,NA,NA,NA,NA,1,1.09967831107,5,1.39941193643,NA,NA,NA,NA,"2013_Mai_25_2304","PostTest",1,19,NA,1,"Tor","FCB",5,"FCB","auf",1
"545",545,"T_M_08.avi",NA,NA,NA,NA,0,7,7,7,NA,NA,NA,NA,NA,NA,NA,NA,2,1.9493357396,4,2.3658140909,NA,NA,NA,NA,"2013_Mai_25_2304","PostTest",1,19,NA,1,"Tor","FCB",4,"FCB","daneben",1
"546",546,"T_M_09.avi",NA,NA,NA,NA,0,8,8,8,NA,NA,NA,NA,NA,NA,NA,NA,2,5.48196013739,3,0.465777354384,NA,NA,NA,NA,"2013_Mai_25_2304","PostTest",1,19,NA,1,"Tor","FCB",3,"FCB","auf",0
"547",547,"T_M_10.avi",NA,NA,NA,NA,0,9,9,9,NA,NA,NA,NA,NA,NA,NA,NA,1,3.3821899152,3,0.633020677209,NA,NA,NA,NA,"2013_Mai_25_2304","PostTest",1,19,NA,1,"Tor","FCB",3,"FCB","auf",1
